ID,TM,YW,PT,RL,AX,AY,AZ,QW,QX,QY,QZ,MX,MY,MZ
3783809,1492543854411,-3.73,3.39,90.47,69.03,977.91,-28.44,,,,,,,
3783808,1492543854362,-3.59,3.23,90.49,69.27,975.95,-31.13,,,,,,,
3783807,1492543854311,-3.5,3.14,90.5,70.98,979.13,-25.27,,,,,,,
3783806,1492543854261,-3.47,3.1,90.51,68.54,976.44,-24.05,,,,,,,
3783805,1492543854210,-3.49,3.12,90.51,64.88,982.3,-31.37,,,,,,,
3783804,1492543854161,-3.56,3.21,90.49,63.66,977.42,-25.27,,,,,,,
3783803,1492543854112,-3.69,3.35,90.47,68.3,978.15,-21.12,,,,,,,
3783802,1492543854061,-3.87,3.55,90.45,66.59,980.35,-29.91,,,,,,,
3783801,1492543854012,-4.09,3.79,90.41,70.25,976.68,-30.64,,,,,,,
3783800,1492543853960,-4.35,4.08,90.37,71.72,981.32,-27.47,,,,,,,
3783799,1492543853911,-4.64,4.4,90.33,63.17,978.15,-30.4,,,,,,,
3783798,1492543853860,-4.95,4.75,90.29,67.08,979.37,-30.15,,,,,,,
3783797,1492543853811,-5.27,5.1,90.24,70.98,977.17,-23.32,,,,,,,
3783796,1492543853762,-5.59,5.45,90.19,66.83,980.35,-27.71,,,,,,,
3783795,1492543853711,-5.91,5.8,90.15,71.72,979.86,-34.06,,,,,,,
3783794,1492543853661,-6.2,6.13,90.1,70.5,980.1,-31.13,,,,,,,
3783793,1492543853610,-6.47,6.43,90.06,67.81,978.15,-32.84,,,,,,,
3783792,1492543853561,-6.71,6.69,90.03,69.52,978.15,-22.09,,,,,,,
3783791,1492543853510,-6.9,6.91,90,66.83,976.44,-29.17,,,,,,,
3783790,1492543853461,-7.06,7.07,89.98,65.37,977.17,-28.93,,,,,,,
3783789,1492543853412,-7.15,7.18,89.96,64.64,976.2,-29.17,,,,,,,
3783788,1492543853360,-7.2,7.23,89.96,69.76,982.54,-28.44,,,,,,,
3783787,1492543853311,-7.19,7.21,89.96,65.61,981.57,-33.57,,,,,,,
3783786,1492543853260,-7.12,7.14,89.97,64.39,981.57,-23.07,,,,,,,
3783785,1492543853211,-7,7.01,89.99,65.86,979.13,-26.73,,,,,,,
3783784,1492543853162,-6.83,6.82,90.01,69.03,977.66,-35.77,,,,,,,
3783783,1492543853110,-6.61,6.58,90.04,64.88,979.61,-24.05,,,,,,,
3783782,1492543853061,-6.36,6.3,90.08,68.05,979.61,-23.56,,,,,,,
3783781,1492543853010,-6.08,5.99,90.12,67.57,983.28,-23.07,,,,,,,
3783780,1492543852961,-5.77,5.65,90.17,68.05,981.81,-29.66,,,,,,,
3783779,1492543852910,-5.45,5.3,90.21,66.1,981.08,-27.95,,,,,,,
3783778,1492543852861,-5.13,4.94,90.26,66.59,982.06,-28.44,,,,,,,
3783777,1492543852811,-4.81,4.59,90.31,69.76,977.17,-25.27,,,,,,,
3783776,1492543852760,-4.51,4.26,90.36,70.98,980.1,-31.37,,,,,,,
3783775,1492543852711,-4.24,3.95,90.4,68.3,981.08,-24.29,,,,,,,
3783774,1492543852660,-3.99,3.68,90.43,68.54,979.61,-25.51,,,,,,,
3783773,1492543852611,-3.79,3.46,90.46,69.03,978.88,-26.25,,,,,,,
3783772,1492543852560,-3.63,3.28,90.49,66.59,979.37,-26.73,,,,,,,
3783771,1492543852510,-3.52,3.16,90.5,71.23,979.61,-32.1,,,,,,,
3783770,1492543852461,-3.47,3.1,90.51,66.83,973.51,-29.66,,,,,,,
3783769,1492543852410,-3.47,3.1,90.51,61.46,978.64,-27.47,,,,,,,
3783768,1492543852361,-3.53,3.16,90.51,68.79,978.39,-29.66,,,,,,,
3783767,1492543852310,-3.65,3.29,90.5,65.37,981.32,-30.88,,,,,,,
3783766,1492543852261,-3.8,3.47,90.47,66.35,979.13,-26.98,,,,,,,
3783765,1492543852209,-4.01,3.69,90.45,67.32,983.28,-28.93,,,,,,,
3783764,1492543852160,-4.26,3.97,90.41,68.79,980.83,-24.54,,,,,,,
3783763,1492543852111,-4.54,4.28,90.37,64.88,979.13,-26.98,,,,,,,
3783762,1492543852060,-4.85,4.61,90.33,63.9,981.08,-24.54,,,,,,,
3783761,1492543852011,-5.16,4.97,90.28,65.12,977.17,-27.71,,,,,,,
3783760,1492543851959,-5.49,5.33,90.23,68.79,979.61,-27.71,,,,,,,
3783759,1492543851910,-5.81,5.68,90.18,70.25,979.37,-25.02,,,,,,,
3783758,1492543851861,-6.11,6.01,90.13,69.76,978.39,-28.2,,,,,,,
3783757,1492543851810,-6.39,6.33,90.09,66.59,983.28,-28.93,,,,,,,
3783756,1492543851761,-6.64,6.6,90.05,69.27,981.81,-23.56,,,,,,,
3783755,1492543851710,-6.85,6.84,90.02,69.03,975.22,-30.4,,,,,,,
3783754,1492543851660,-7.01,7.02,89.99,70.74,979.37,-27.22,,,,,,,
3783753,1492543851609,-7.14,7.15,89.98,68.3,978.15,-27.22,,,,,,,
3783752,1492543851560,-7.2,7.22,89.97,67.81,978.39,-26.98,,,,,,,
3783751,1492543851511,-7.21,7.23,89.97,65.37,981.57,-27.71,,,,,,,
3783750,1492543851460,-7.16,7.18,89.98,66.35,977.91,-30.64,,,,,,,
3783749,1492543851411,-7.05,7.06,89.99,68.05,974.49,-29.66,,,,,,,
3783748,1492543851359,-6.9,6.89,90.01,71.72,982.54,-29.17,,,,,,,
3783747,1492543851310,-6.69,6.67,90.03,66.59,977.66,-24.29,,,,,,,
3783746,1492543851259,-6.45,6.4,90.07,66.83,979.13,-28.69,,,,,,,
3783745,1492543851210,-6.18,6.1,90.11,67.32,978.64,-25.51,,,,,,,
3783744,1492543851161,-5.88,5.77,90.16,66.59,978.39,-28.93,,,,,,,
3783743,1492543851110,-5.57,5.42,90.21,67.81,982.54,-22.09,,,,,,,
3783742,1492543851060,-5.24,5.06,90.26,67.81,979.61,-34.06,,,,,,,
3783741,1492543851009,-4.92,4.71,90.31,66.59,981.81,-29.66,,,,,,,
3783740,1492543850960,-4.61,4.36,90.35,69.52,978.64,-24.78,,,,,,,
3783739,1492543850909,-4.33,4.05,90.4,63.9,977.17,-26.73,,,,,,,
3783738,1492543850860,-4.07,3.76,90.43,64.39,979.61,-31.37,,,,,,,
3783737,1492543850811,-3.85,3.51,90.47,64.64,976.44,-32.59,,,,,,,
3783736,1492543850759,-3.67,3.32,90.49,66.35,976.44,-26.25,,,,,,,
3783735,1492543850710,-3.55,3.18,90.51,64.64,979.37,-27.71,,,,,,,
3783734,1492543850659,-3.48,3.1,90.52,67.57,976.44,-23.8,,,,,,,
3783733,1492543850610,-3.46,3.08,90.53,64.64,981.81,-29.91,,,,,,,
3783732,1492543850561,-3.5,3.13,90.52,70.5,979.13,-30.15,,,,,,,
3783731,1492543850509,-3.59,3.23,90.51,70.01,984.74,-30.15,,,,,,,
3783730,1492543850460,-3.74,3.39,90.49,64.64,979.37,-23.56,,,,,,,
3783729,1492543850409,-3.94,3.61,90.46,68.79,978.88,-28.69,,,,,,,
3783728,1492543850360,-4.17,3.87,90.43,68.3,982.3,-32.1,,,,,,,
3783727,1492543850309,-4.44,4.16,90.4,66.35,980.35,-27.47,,,,,,,
3783726,1492543850260,-4.74,4.49,90.35,65.86,979.86,-26.98,,,,,,,
3783725,1492543850210,-5.05,4.83,90.3,68.3,980.35,-28.2,,,,,,,
3783724,1492543850159,-5.37,5.19,90.25,69.52,981.57,-28.93,,,,,,,
3783723,1492543850110,-5.7,5.55,90.2,65.12,974,-32.1,,,,,,,
3783722,1492543850059,-6.01,5.9,90.16,69.52,982.06,-33.81,,,,,,,
3783721,1492543850010,-6.3,6.22,90.11,64.15,977.91,-27.71,,,,,,,
3783720,1492543849959,-6.57,6.51,90.07,65.37,982.06,-29.17,,,,,,,
3783719,1492543849909,-6.8,6.77,90.04,66.1,976.44,-25.02,,,,,,,
3783718,1492543849860,-6.99,6.98,90.02,66.35,979.37,-26,,,,,,,
3783717,1492543849809,-7.12,7.13,90,67.81,977.42,-28.93,,,,,,,
3783716,1492543849760,-7.21,7.22,89.99,69.52,979.37,-29.91,,,,,,,
3783715,1492543849709,-7.23,7.25,89.98,66.59,980.59,-25.27,,,,,,,
3783714,1492543849660,-7.2,7.22,89.98,66.35,977.91,-33.57,,,,,,,
3783713,1492543849608,-7.12,7.13,89.99,65.86,979.86,-22.58,,,,,,,
3783712,1492543849559,-6.99,6.98,90.01,71.23,979.86,-29.66,,,,,,,
3783711,1492543849510,-6.81,6.78,90.04,67.81,982.3,-28.2,,,,,,,
3783710,1492543849459,-6.58,6.53,90.07,69.03,984.74,-31.62,,,,,,,
3783709,1492543849410,-6.31,6.23,90.11,69.52,981.57,-25.76,,,,,,,
3783708,1492543849359,-6.02,5.91,90.16,63.66,978.64,-31.62,,,,,,,
3783707,1492543849309,-5.7,5.56,90.2,64.88,978.39,-23.07,,,,,,,
3783706,1492543849260,-5.37,5.2,90.24,68.05,983.28,-26.25,,,,,,,
3783705,1492543849209,-5.05,4.84,90.29,62.93,981.08,-29.17,,,,,,,
3783704,1492543849160,-4.74,4.5,90.34,64.39,978.39,-25.51,,,,,,,
3783703,1492543849109,-4.44,4.17,90.39,67.81,977.17,-28.2,,,,,,,
3783702,1492543849060,-4.17,3.87,90.43,64.88,976.68,-27.95,,,,,,,
3783701,1492543849008,-3.94,3.61,90.46,65.12,977.42,-27.47,,,,,,,
3783700,1492543848959,-3.74,3.4,90.49,65.12,980.83,-28.93,,,,,,,
3783699,1492543848910,-3.59,3.23,90.51,70.25,975.95,-28.69,,,,,,,
3783698,1492543848859,-3.5,3.13,90.53,65.37,975.71,-33.33,,,,,,,
3783697,1492543848810,-3.46,3.09,90.53,66.1,980.83,-23.32,,,,,,,
3783696,1492543848758,-3.47,3.11,90.52,68.79,977.91,-25.76,,,,,,,
3783695,1492543848709,-3.55,3.18,90.51,68.79,974.73,-28.93,,,,,,,
3783694,1492543848658,-3.67,3.32,90.5,66.83,980.35,-24.54,,,,,,,
3783693,1492543848609,-3.85,3.52,90.47,67.08,978.88,-25.51,,,,,,,
3783692,1492543848560,-4.07,3.76,90.44,67.08,983.28,-26,,,,,,,
3783691,1492543848509,-4.33,4.05,90.4,70.74,979.37,-33.08,,,,,,,
3783690,1492543848459,-4.61,4.37,90.35,70.5,980.1,-18.92,,,,,,,
3783689,1492543848408,-4.92,4.71,90.3,67.81,980.59,-24.05,,,,,,,
3783688,1492543848359,-5.25,5.07,90.25,65.61,981.81,-27.22,,,,,,,
3783687,1492543848308,-5.57,5.43,90.2,66.1,979.61,-32.84,,,,,,,
3783686,1492543848259,-5.88,5.78,90.15,68.05,980.83,-21.36,,,,,,,
3783685,1492543848210,-6.18,6.11,90.1,67.57,982.06,-27.22,,,,,,,
3783684,1492543848158,-6.45,6.41,90.06,69.52,979.37,-30.4,,,,,,,
3783683,1492543848109,-6.7,6.68,90.02,67.08,978.39,-27.71,,,,,,,
3783682,1492543848058,-6.9,6.91,89.99,65.12,980.83,-25.27,,,,,,,
3783681,1492543848009,-7.06,7.08,89.97,65.86,981.32,-29.17,,,,,,,
3783680,1492543847960,-7.16,7.19,89.95,62.93,975.71,-31.13,,,,,,,
3783679,1492543847909,-7.22,7.25,89.95,66.35,977.42,-31.13,,,,,,,
3783678,1492543847859,-7.21,7.24,89.96,70.01,978.39,-31.13,,,,,,,
3783677,1492543847808,-7.14,7.17,89.96,67.08,982.3,-27.47,,,,,,,
3783676,1492543847759,-7.03,7.04,89.97,66.59,977.66,-36.74,,,,,,,
3783675,1492543847708,-6.86,6.86,90,64.39,978.15,-28.2,,,,,,,
3783674,1492543847659,-6.65,6.62,90.04,65.86,982.79,-24.05,,,,,,,
3783673,1492543847610,-6.4,6.34,90.08,66.83,981.32,-26.73,,,,,,,
3783672,1492543847558,-6.11,6.03,90.12,66.35,982.06,-26.49,,,,,,,
3783671,1492543847509,-5.8,5.69,90.16,64.39,982.3,-25.27,,,,,,,
3783670,1492543847458,-5.48,5.33,90.21,65.12,978.64,-26.73,,,,,,,
3783669,1492543847409,-5.15,4.97,90.26,64.64,981.57,-34.3,,,,,,,
3783668,1492543847358,-4.83,4.62,90.31,65.37,979.61,-28.2,,,,,,,
3783667,1492543847308,-4.53,4.28,90.35,65.61,977.42,-28.93,,,,,,,
3783666,1492543847259,-4.24,3.97,90.39,68.05,981.57,-33.33,,,,,,,
3783665,1492543847208,-3.99,3.69,90.43,66.1,979.86,-23.07,,,,,,,
3783664,1492543847159,-3.78,3.46,90.46,66.83,982.3,-27.95,,,,,,,
3783663,1492543847108,-3.61,3.28,90.48,64.88,980.1,-25.27,,,,,,,
3783662,1492543847059,-3.49,3.15,90.49,71.47,977.66,-27.22,,,,,,,
3783661,1492543847009,-3.43,3.09,90.5,67.57,975.22,-25.27,,,,,,,
3783660,1492543846958,-3.43,3.08,90.5,65.86,978.88,-24.29,,,,,,,
3783659,1492543846909,-3.49,3.14,90.49,66.83,978.88,-32.1,,,,,,,
3783658,1492543846858,-3.59,3.26,90.48,68.54,978.39,-28.2,,,,,,,
3783657,1492543846809,-3.75,3.43,90.46,65.37,975.95,-29.17,,,,,,,
3783656,1492543846758,-3.96,3.65,90.43,66.59,982.06,-33.33,,,,,,,
3783655,1492543846708,-4.2,3.92,90.4,64.39,981.32,-31.86,,,,,,,
3783654,1492543846659,-4.48,4.23,90.36,72.2,978.64,-31.86,,,,,,,
3783653,1492543846608,-4.79,4.57,90.31,66.1,981.08,-28.93,,,,,,,
3783652,1492543846559,-5.11,4.92,90.27,65.61,981.81,-26,,,,,,,
3783651,1492543846508,-5.43,5.28,90.22,70.01,980.1,-28.93,,,,,,,
3783650,1492543846459,-5.75,5.64,90.16,67.81,982.3,-23.56,,,,,,,
3783649,1492543846407,-6.06,5.98,90.11,66.1,979.61,-30.88,,,,,,,
3783648,1492543846358,-6.35,6.3,90.07,64.64,976.93,-30.64,,,,,,,
3783647,1492543846309,-6.61,6.59,90.03,66.59,979.37,-30.15,,,,,,,
3783646,1492543846258,-6.83,6.83,90,68.54,975.95,-24.29,,,,,,,
3783645,1492543846209,-7.01,7.02,89.98,63.17,982.54,-27.22,,,,,,,
3783644,1492543846157,-7.13,7.16,89.95,67.08,976.93,-27.95,,,,,,,
3783643,1492543846108,-7.19,7.23,89.94,68.54,976.93,-32.1,,,,,,,
3783642,1492543846059,-7.2,7.25,89.94,68.79,977.42,-26,,,,,,,
3783641,1492543846008,-7.16,7.2,89.94,62.19,979.13,-29.17,,,,,,,
3783640,1492543845959,-7.06,7.09,89.96,68.54,978.15,-28.69,,,,,,,
3783639,1492543845908,-6.91,6.93,89.98,68.05,980.35,-24.54,,,,,,,
3783638,1492543845858,-6.71,6.71,90.01,66.83,980.59,-27.95,,,,,,,
3783637,1492543845807,-6.47,6.44,90.05,65.86,978.39,-21.61,,,,,,,
3783636,1492543845758,-6.2,6.14,90.09,64.64,983.03,-23.56,,,,,,,
3783635,1492543845709,-5.89,5.8,90.13,71.96,978.88,-26.98,,,,,,,
3783634,1492543845658,-5.58,5.45,90.18,67.81,977.66,-29.91,,,,,,,
3783633,1492543845609,-5.26,5.09,90.24,67.57,980.1,-24.78,,,,,,,
3783632,1492543845557,-4.93,4.73,90.29,68.79,977.42,-29.66,,,,,,,
3783631,1492543845508,-4.62,4.38,90.34,64.39,984.25,-31.86,,,,,,,
3783630,1492543845457,-4.32,4.06,90.38,70.01,979.61,-31.62,,,,,,,
3783629,1492543845408,-4.06,3.77,90.42,70.5,974.24,-33.57,,,,,,,
3783628,1492543845359,-3.83,3.52,90.46,62.93,975.95,-26.73,,,,,,,
3783627,1492543845308,-3.65,3.31,90.48,68.54,981.81,-28.2,,,,,,,
3783626,1492543845258,-3.51,3.16,90.5,72.45,975.95,-30.64,,,,,,,
3783625,1492543845207,-3.43,3.08,90.51,66.1,981.32,-28.2,,,,,,,
3783624,1492543845158,-3.41,3.05,90.51,67.32,980.1,-27.22,,,,,,,
3783623,1492543845107,-3.44,3.09,90.51,67.57,977.91,-22.09,,,,,,,
3783622,1492543845058,-3.53,3.18,90.49,65.12,975.22,-29.42,,,,,,,
3783621,1492543845009,-3.67,3.34,90.47,63.66,982.06,-29.66,,,,,,,
3783620,1492543844957,-3.86,3.55,90.45,67.57,976.68,-31.62,,,,,,,
3783619,1492543844908,-4.09,3.81,90.42,66.35,984.01,-27.95,,,,,,,
3783618,1492543844857,-4.37,4.11,90.38,64.88,983.28,-31.86,,,,,,,
3783617,1492543844808,-4.67,4.44,90.33,66.1,979.37,-26.49,,,,,,,
3783616,1492543844757,-4.99,4.79,90.29,62.68,979.37,-30.64,,,,,,,
3783615,1492543844708,-5.32,5.15,90.25,65.12,982.3,-26,,,,,,,
3783614,1492543844658,-5.64,5.51,90.19,69.76,981.32,-18.92,,,,,,,
3783613,1492543844607,-5.96,5.86,90.14,68.05,978.15,-30.4,,,,,,,
3783612,1492543844558,-6.26,6.19,90.09,67.32,978.15,-23.56,,,,,,,
3783611,1492543844507,-6.53,6.49,90.06,65.61,978.39,-30.88,,,,,,,
3783610,1492543844458,-6.76,6.75,90.02,68.3,975.95,-30.88,,,,,,,
3783609,1492543844408,-6.96,6.96,89.99,68.79,974.73,-29.66,,,,,,,
3783608,1492543844357,-7.1,7.12,89.97,67.57,978.88,-24.78,,,,,,,
3783607,1492543844308,-7.19,7.22,89.96,66.35,979.13,-32.59,,,,,,,
3783606,1492543844257,-7.23,7.26,89.95,70.25,978.39,-35.77,,,,,,,
3783605,1492543844208,-7.2,7.23,89.95,67.32,978.15,-29.17,,,,,,,
3783604,1492543844157,-7.13,7.15,89.97,67.32,981.08,-31.13,,,,,,,
3783603,1492543844107,-6.99,7,89.99,67.57,984.01,-27.47,,,,,,,
3783602,1492543844058,-6.81,6.8,90.01,67.08,979.61,-22.58,,,,,,,
3783601,1492543844007,-6.58,6.55,90.05,64.15,978.15,-30.64,,,,,,,
3783600,1492543843958,-6.32,6.26,90.08,66.1,980.83,-26.49,,,,,,,
3783599,1492543843907,-6.03,5.94,90.12,71.23,982.3,-24.54,,,,,,,
3783598,1492543843858,-5.71,5.6,90.17,68.05,981.57,-25.27,,,,,,,
3783597,1492543843806,-5.39,5.23,90.22,66.1,980.35,-27.71,,,,,,,
3783596,1492543843757,-5.06,4.87,90.27,70.98,980.59,-36.25,,,,,,,
3783595,1492543843708,-4.74,4.52,90.32,68.79,979.37,-33.81,,,,,,,
3783594,1492543843657,-4.43,4.18,90.36,69.76,983.03,-30.88,,,,,,,
3783593,1492543843608,-4.15,3.88,90.4,71.23,977.17,-26.25,,,,,,,
3783592,1492543843557,-3.91,3.61,90.44,69.27,975.95,-29.66,,,,,,,
3783591,1492543843507,-3.71,3.39,90.47,69.27,978.39,-27.47,,,,,,,
3783590,1492543843456,-3.56,3.22,90.49,67.32,978.88,-29.66,,,,,,,
3783589,1492543843407,-3.46,3.11,90.51,68.54,977.66,-25.76,,,,,,,
3783588,1492543843358,-3.41,3.05,90.52,67.32,975.22,-32.59,,,,,,,
3783587,1492543843307,-3.43,3.07,90.52,65.86,978.15,-30.15,,,,,,,
3783586,1492543843258,-3.5,3.14,90.51,70.5,982.54,-30.64,,,,,,,
3783585,1492543843206,-3.62,3.28,90.5,68.54,983.03,-28.44,,,,,,,
3783584,1492543843157,-3.8,3.47,90.47,63.66,981.32,-25.51,,,,,,,
3783583,1492543843108,-4.01,3.71,90.44,67.08,976.68,-24.54,,,,,,,
3783582,1492543843057,-4.28,4,90.4,64.88,977.91,-34.3,,,,,,,
3783581,1492543843008,-4.56,4.32,90.36,69.76,976.68,-24.05,,,,,,,
3783580,1492543842956,-4.88,4.66,90.31,69.27,977.42,-23.07,,,,,,,
3783579,1492543842907,-5.2,5.02,90.26,65.86,984.01,-24.78,,,,,,,
3783578,1492543842856,-5.53,5.39,90.22,66.1,980.1,-26,,,,,,,
3783577,1492543842807,-5.86,5.74,90.17,66.59,981.57,-29.17,,,,,,,
3783576,1492543842758,-6.17,6.08,90.12,69.27,982.79,-30.15,,,,,,,
3783575,1492543842707,-6.45,6.39,90.08,65.37,978.15,-30.4,,,,,,,
3783574,1492543842657,-6.7,6.67,90.04,64.39,980.59,-25.27,,,,,,,
3783573,1492543842606,-6.91,6.9,90.01,65.61,978.88,-29.91,,,,,,,
3783572,1492543842557,-7.07,7.08,89.98,71.72,976.2,-30.64,,,,,,,
3783571,1492543842508,-7.18,7.2,89.97,66.35,975.46,-30.64,,,,,,,
3783570,1492543842457,-7.24,7.26,89.96,68.79,980.59,-28.2,,,,,,,
3783569,1492543842408,-7.24,7.26,89.97,64.39,984.74,-33.33,,,,,,,
3783568,1492543842356,-7.18,7.19,89.97,68.05,977.91,-27.22,,,,,,,
3783567,1492543842307,-7.06,7.07,89.99,66.35,978.64,-33.81,,,,,,,
3783566,1492543842256,-6.89,6.88,90.02,63.9,979.86,-29.91,,,,,,,
3783565,1492543842207,-6.68,6.65,90.05,68.3,979.61,-33.08,,,,,,,
3783564,1492543842158,-6.44,6.38,90.09,68.79,980.35,-33.08,,,,,,,
3783563,1492543842107,-6.15,6.06,90.13,66.35,979.61,-28.44,,,,,,,
3783562,1492543842057,-5.84,5.72,90.18,70.01,978.88,-27.47,,,,,,,
3783561,1492543842006,-5.52,5.36,90.23,65.37,978.15,-26.73,,,,,,,
3783560,1492543841957,-5.19,5,90.28,67.57,983.28,-28.69,,,,,,,
3783559,1492543841906,-4.86,4.64,90.33,67.81,981.32,-31.13,,,,,,,
3783558,1492543841857,-4.55,4.29,90.38,65.86,979.13,-29.66,,,,,,,
3783557,1492543841808,-4.26,3.97,90.42,66.83,974.98,-32.84,,,,,,,
3783556,1492543841756,-4,3.69,90.46,63.42,978.39,-25.51,,,,,,,
3783555,1492543841707,-3.78,3.45,90.49,65.86,976.93,-33.57,,,,,,,
3783554,1492543841656,-3.61,3.26,90.52,67.81,979.37,-34.55,,,,,,,
3783553,1492543841607,-3.49,3.13,90.54,61.95,979.37,-32.1,,,,,,,
3783552,1492543841556,-3.43,3.06,90.54,63.9,973.51,-32.84,,,,,,,
3783551,1492543841506,-3.42,3.05,90.55,65.12,976.93,-27.22,,,,,,,
3783550,1492543841457,-3.47,3.11,90.54,61.46,973.51,-32.35,,,,,,,
3783549,1492543841406,-3.58,3.22,90.53,67.32,980.59,-31.37,,,,,,,
3783548,1492543841357,-3.74,3.39,90.51,63.9,976.93,-20.14,,,,,,,
3783547,1492543841306,-3.94,3.62,90.48,66.35,980.83,-30.15,,,,,,,
3783546,1492543841257,-4.19,3.89,90.44,66.35,977.66,-22.58,,,,,,,
3783545,1492543841205,-4.47,4.2,90.4,69.76,984.5,-29.17,,,,,,,
3783544,1492543841156,-4.77,4.53,90.35,66.35,975.71,-30.15,,,,,,,
3783543,1492543841107,-5.09,4.88,90.31,65.86,981.57,-33.57,,,,,,,
3783542,1492543841056,-5.42,5.25,90.26,69.27,977.42,-26.49,,,,,,,
3783541,1492543841007,-5.75,5.61,90.21,66.83,982.3,-30.64,,,,,,,
3783540,1492543840956,-6.07,5.96,90.16,64.64,979.37,-26.49,,,,,,,
3783539,1492543840906,-6.36,6.28,90.11,64.15,980.1,-22.83,,,,,,,
3783538,1492543840857,-6.62,6.57,90.07,68.79,981.57,-20.39,,,,,,,
3783537,1492543840806,-6.84,6.82,90.03,66.1,979.86,-27.22,,,,,,,
3783536,1492543840757,-7.02,7.02,90.01,65.86,978.88,-33.33,,,,,,,
3783535,1492543840706,-7.15,7.16,89.98,69.03,976.2,-19.41,,,,,,,
3783534,1492543840657,-7.23,7.24,89.97,66.59,979.61,-30.4,,,,,,,
3783533,1492543840605,-7.25,7.27,89.97,64.39,975.22,-27.71,,,,,,,
3783532,1492543840556,-7.21,7.23,89.97,69.03,973.02,-32.1,,,,,,,
3783531,1492543840507,-7.11,7.12,89.99,65.37,981.57,-25.51,,,,,,,
3783530,1492543840456,-6.97,6.96,90.01,66.59,973.51,-25.02,,,,,,,
3783529,1492543840407,-6.77,6.75,90.04,63.66,978.39,-26,,,,,,,
3783528,1492543840356,-6.53,6.48,90.07,65.86,981.81,-27.95,,,,,,,
3783527,1492543840306,-6.26,6.18,90.12,66.35,977.91,-26.73,,,,,,,
3783526,1492543840255,-5.96,5.85,90.16,64.88,978.39,-26,,,,,,,
3783525,1492543840206,-5.64,5.5,90.21,68.54,980.1,-26.49,,,,,,,
3783524,1492543840157,-5.31,5.13,90.26,66.59,979.37,-24.54,,,,,,,
3783523,1492543840106,-4.98,4.77,90.31,68.3,981.08,-30.4,,,,,,,
3783522,1492543840056,-4.66,4.42,90.36,70.25,981.81,-28.44,,,,,,,
3783521,1492543840005,-4.36,4.09,90.41,68.3,978.15,-28.44,,,,,,,
3783520,1492543839956,-4.09,3.79,90.45,68.3,977.17,-22.09,,,,,,,
3783519,1492543839905,-3.86,3.53,90.48,71.47,982.54,-28.2,,,,,,,
3783518,1492543839856,-3.67,3.33,90.51,68.05,976.44,-25.27,,,,,,,
3783517,1492543839807,-3.53,3.17,90.53,68.05,976.2,-36.25,,,,,,,
3783516,1492543839755,-3.44,3.08,90.54,68.79,978.88,-27.71,,,,,,,
3783515,1492543839706,-3.41,3.04,90.55,67.81,975.46,-27.22,,,,,,,
3783514,1492543839655,-3.44,3.07,90.54,69.76,977.17,-27.95,,,,,,,
3783513,1492543839606,-3.52,3.17,90.53,64.64,976.68,-23.8,,,,,,,
3783512,1492543839557,-3.66,3.32,90.51,66.83,979.37,-26.73,,,,,,,
3783511,1492543839506,-3.85,3.53,90.48,63.66,979.37,-30.88,,,,,,,
3783510,1492543839456,-4.08,3.78,90.45,67.08,978.64,-19.65,,,,,,,
3783509,1492543839405,-4.35,4.08,90.41,66.83,980.83,-33.57,,,,,,,
3783508,1492543839356,-4.65,4.41,90.36,64.64,979.61,-33.57,,,,,,,
3783507,1492543839305,-4.97,4.76,90.31,65.61,981.32,-27.95,,,,,,,
3783506,1492543839256,-5.29,5.12,90.26,69.03,979.86,-26,,,,,,,
3783505,1492543839207,-5.62,5.49,90.21,64.39,979.86,-28.44,,,,,,,
3783504,1492543839155,-5.95,5.84,90.16,67.08,979.61,-30.4,,,,,,,
3783503,1492543839106,-6.25,6.18,90.11,68.05,980.35,-27.71,,,,,,,
3783502,1492543839055,-6.53,6.48,90.07,66.83,980.1,-28.93,,,,,,,
3783501,1492543839006,-6.77,6.74,90.04,68.79,978.39,-23.32,,,,,,,
3783500,1492543838955,-6.97,6.96,90.01,68.79,980.59,-31.62,,,,,,,
3783499,1492543838906,-7.12,7.13,89.98,66.1,977.66,-28.44,,,,,,,
3783498,1492543838856,-7.21,7.23,89.97,67.57,980.35,-31.62,,,,,,,
3783497,1492543838805,-7.25,7.28,89.96,71.96,976.93,-19.9,,,,,,,
3783496,1492543838756,-7.23,7.26,89.96,65.37,979.13,-28.2,,,,,,,
3783495,1492543838705,-7.16,7.18,89.97,69.03,979.13,-23.8,,,,,,,
3783494,1492543838656,-7.03,7.04,89.99,67.57,981.08,-28.93,,,,,,,
3783493,1492543838604,-6.85,6.84,90.01,64.39,976.2,-31.13,,,,,,,
3783492,1492543838555,-6.62,6.59,90.05,68.79,980.35,-27.22,,,,,,,
3783491,1492543838506,-6.36,6.31,90.08,66.59,980.1,-31.13,,,,,,,
3783490,1492543838455,-6.06,5.98,90.12,67.57,980.59,-31.13,,,,,,,
3783489,1492543838406,-5.74,5.63,90.17,68.79,980.35,-31.37,,,,,,,
3783488,1492543838355,-5.42,5.26,90.22,67.81,975.95,-33.08,,,,,,,
3783487,1492543838305,-5.08,4.9,90.27,66.35,977.42,-25.51,,,,,,,
3783486,1492543838256,-4.76,4.55,90.32,69.52,981.81,-29.66,,,,,,,
3783485,1492543838205,-4.45,4.21,90.37,64.39,977.66,-25.51,,,,,,,
3783484,1492543838156,-4.17,3.9,90.41,68.05,976.93,-24.78,,,,,,,
3783483,1492543838105,-3.92,3.62,90.45,70.74,981.08,-24.78,,,,,,,
3783482,1492543838056,-3.71,3.39,90.48,65.61,975.22,-22.83,,,,,,,
3783481,1492543838004,-3.56,3.22,90.5,65.12,976.2,-29.17,,,,,,,
3783480,1492543837955,-3.45,3.1,90.52,61.95,979.37,-25.02,,,,,,,
3783479,1492543837906,-3.4,3.05,90.53,66.59,973.51,-36.25,,,,,,,
3783478,1492543837855,-3.41,3.06,90.53,68.3,980.59,-26.98,,,,,,,
3783477,1492543837806,-3.47,3.13,90.52,69.03,979.13,-25.27,,,,,,,
3783476,1492543837755,-3.6,3.26,90.5,66.35,978.15,-34.06,,,,,,,
3783475,1492543837705,-3.77,3.45,90.48,64.39,980.1,-21.61,,,,,,,
3783474,1492543837654,-3.99,3.69,90.45,67.81,980.1,-24.29,,,,,,,
3783473,1492543837605,-4.25,3.97,90.41,66.1,978.64,-26.25,,,,,,,
3783472,1492543837556,-4.54,4.29,90.37,69.27,976.93,-28.2,,,,,,,
3783471,1492543837505,-4.85,4.64,90.31,65.86,980.1,-27.22,,,,,,,
3783470,1492543837456,-5.18,5,90.26,68.54,985.47,-28.69,,,,,,,
3783469,1492543837404,-5.51,5.37,90.22,66.1,983.28,-25.76,,,,,,,
3783468,1492543837355,-5.84,5.73,90.16,67.32,976.44,-28.2,,,,,,,
3783467,1492543837306,-6.15,6.08,90.11,68.54,978.39,-24.78,,,,,,,
3783466,1492543837255,-6.44,6.4,90.07,66.1,980.1,-29.91,,,,,,,
3783465,1492543837206,-6.7,6.68,90.03,65.12,978.88,-29.66,,,,,,,
3783464,1492543837154,-6.91,6.91,90,65.12,980.83,-26.49,,,,,,,
3783463,1492543837105,-7.08,7.1,89.98,67.08,980.35,-34.3,,,,,,,
3783462,1492543837054,-7.2,7.22,89.96,69.27,978.15,-28.69,,,,,,,
3783461,1492543837005,-7.26,7.29,89.95,68.54,979.13,-29.91,,,,,,,
3783460,1492543836956,-7.26,7.29,89.95,67.81,977.66,-23.56,,,,,,,
3783459,1492543836905,-7.21,7.23,89.96,73.67,979.86,-34.3,,,,,,,
3783458,1492543836855,-7.09,7.11,89.97,68.79,979.13,-29.17,,,,,,,
3783457,1492543836804,-6.93,6.93,90,72.94,979.86,-28.44,,,,,,,
3783456,1492543836755,-6.72,6.7,90.02,66.35,978.64,-28.69,,,,,,,
3783455,1492543836704,-6.47,6.43,90.06,69.52,979.61,-35.28,,,,,,,
3783454,1492543836655,-6.18,6.11,90.1,67.57,979.13,-27.95,,,,,,,
3783453,1492543836606,-5.87,5.77,90.15,65.61,981.81,-30.64,,,,,,,
3783452,1492543836554,-5.54,5.41,90.2,68.05,977.91,-25.51,,,,,,,
3783451,1492543836505,-5.2,5.04,90.25,67.57,982.54,-27.47,,,,,,,
3783450,1492543836454,-4.87,4.67,90.29,70.74,979.13,-25.51,,,,,,,
3783449,1492543836405,-4.55,4.32,90.34,65.86,979.61,-29.42,,,,,,,
3783448,1492543836354,-4.25,4,90.38,66.35,977.91,-27.22,,,,,,,
3783447,1492543836305,-3.98,3.71,90.42,68.05,977.66,-23.8,,,,,,,
3783446,1492543836255,-3.76,3.46,90.45,66.83,978.64,-25.76,,,,,,,
3783445,1492543836204,-3.58,3.26,90.48,64.64,978.39,-27.71,,,,,,,
3783444,1492543836155,-3.45,3.13,90.5,66.83,978.39,-23.56,,,,,,,
3783443,1492543836104,-3.38,3.05,90.51,61.71,978.88,-29.91,,,,,,,
3783442,1492543836055,-3.37,3.04,90.51,67.32,980.35,-26.25,,,,,,,
3783441,1492543836004,-3.41,3.08,90.5,66.59,975.71,-26.25,,,,,,,
3783440,1492543835954,-3.51,3.19,90.49,66.83,980.59,-25.27,,,,,,,
3783439,1492543835905,-3.66,3.36,90.47,65.12,976.2,-29.17,,,,,,,
3783438,1492543835854,-3.87,3.58,90.44,66.35,979.37,-26.98,,,,,,,
3783437,1492543835805,-4.11,3.85,90.4,66.59,978.64,-28.69,,,,,,,
3783436,1492543835754,-4.39,4.15,90.36,67.32,975.95,-30.4,,,,,,,
3783435,1492543835704,-4.7,4.49,90.31,67.81,979.61,-31.13,,,,,,,
3783434,1492543835655,-5.02,4.85,90.26,69.27,975.22,-24.54,,,,,,,
3783433,1492543835604,-5.36,5.22,90.21,68.05,980.35,-26.49,,,,,,,
3783432,1492543835555,-5.69,5.59,90.16,65.12,979.13,-29.91,,,,,,,
3783431,1492543835504,-6.01,5.94,90.11,68.54,981.08,-24.29,,,,,,,
3783430,1492543835455,-6.32,6.27,90.06,68.54,977.66,-30.15,,,,,,,
3783429,1492543835403,-6.58,6.57,90.02,67.81,979.13,-25.76,,,,,,,
3783428,1492543835354,-6.82,6.82,89.99,66.1,976.44,-36.01,,,,,,,
3783427,1492543835305,-7,7.03,89.96,64.88,977.17,-28.93,,,,,,,
3783426,1492543835254,-7.14,7.18,89.94,69.03,976.93,-24.54,,,,,,,
3783425,1492543835205,-7.23,7.27,89.93,66.83,978.64,-30.88,,,,,,,
3783424,1492543835154,-7.25,7.3,89.93,65.86,981.81,-25.51,,,,,,,
3783423,1492543835104,-7.22,7.26,89.94,65.61,981.57,-22.58,,,,,,,
3783422,1492543835053,-7.13,7.16,89.94,67.81,976.68,-28.69,,,,,,,
3783421,1492543835004,-6.98,7,89.96,65.37,976.44,-30.88,,,,,,,
3783420,1492543834955,-6.79,6.79,90,68.3,979.37,-36.74,,,,,,,
3783419,1492543834904,-6.55,6.53,90.03,62.44,980.83,-27.47,,,,,,,
3783418,1492543834855,-6.28,6.23,90.08,67.08,982.79,-21.36,,,,,,,
3783417,1492543834803,-5.98,5.9,90.13,67.08,982.79,-32.1,,,,,,,
3783416,1492543834754,-5.65,5.54,90.17,68.05,976.68,-27.22,,,,,,,
3783415,1492543834705,-5.32,5.17,90.23,69.52,978.64,-29.91,,,,,,,
3783414,1492543834654,-4.99,4.81,90.28,68.3,981.32,-24.78,,,,,,,
3783413,1492543834605,-4.66,4.45,90.33,63.42,980.35,-28.93,,,,,,,
3783412,1492543834554,-4.36,4.11,90.37,67.57,980.83,-29.91,,,,,,,
3783409,1492543834404,-3.65,3.33,90.49,68.05,981.57,-26.49,,,,,,,
3783408,1492543834355,-3.5,3.17,90.51,66.59,978.88,-28.44,,,,,,,
3783407,1492543834304,-3.41,3.07,90.52,70.01,977.66,-22.58,,,,,,,
3783406,1492543834255,-3.37,3.03,90.53,66.83,977.66,-33.08,,,,,,,
3783405,1492543834203,-3.39,3.05,90.53,66.83,981.08,-26.98,,,,,,,
3783404,1492543834154,-3.47,3.13,90.51,68.79,979.13,-26.49,,,,,,,
3783403,1492543834103,-3.6,3.28,90.49,70.5,978.39,-24.05,,,,,,,
3783402,1492543834054,-3.79,3.48,90.47,70.01,975.22,-26.73,,,,,,,
3783401,1492543834005,-4.02,3.73,90.44,68.54,977.91,-26.25,,,,,,,
3783400,1492543833953,-4.29,4.03,90.4,68.05,978.64,-24.05,,,,,,,
3783399,1492543833904,-4.6,4.36,90.36,68.54,980.1,-26.49,,,,,,,
3783398,1492543833853,-4.92,4.71,90.31,66.35,981.81,-25.02,,,,,,,
3783397,1492543833804,-5.25,5.08,90.27,68.79,980.59,-30.64,,,,,,,
3783396,1492543833753,-5.59,5.45,90.21,66.35,978.88,-23.8,,,,,,,
3783395,1492543833704,-5.91,5.81,90.16,65.12,978.88,-25.27,,,,,,,
3783394,1492543833654,-6.22,6.15,90.11,62.19,975.95,-26.49,,,,,,,
3783393,1492543833603,-6.51,6.46,90.07,65.37,978.39,-33.81,,,,,,,
3783392,1492543833554,-6.76,6.74,90.02,67.32,977.17,-27.22,,,,,,,
3783391,1492543833503,-6.96,6.97,89.99,72.45,980.59,-33.33,,,,,,,
3783390,1492543833454,-7.12,7.14,89.98,62.44,978.88,-26.73,,,,,,,
3783389,1492543833405,-7.23,7.25,89.97,68.3,976.93,-36.5,,,,,,,
3783388,1492543833353,-7.27,7.3,89.96,67.57,975.71,-24.05,,,,,,,
3783387,1492543833304,-7.26,7.29,89.96,63.66,979.13,-29.42,,,,,,,
3783386,1492543833253,-7.19,7.21,89.97,65.37,974.49,-26.49,,,,,,,
3783385,1492543833204,-7.06,7.07,89.99,69.03,978.15,-26,,,,,,,
3783384,1492543833153,-6.88,6.87,90.02,66.59,979.86,-25.02,,,,,,,
3783383,1492543833104,-6.66,6.63,90.05,67.57,980.35,-27.71,,,,,,,
3783382,1492543833054,-6.4,6.34,90.09,62.93,982.54,-25.51,,,,,,,
3783381,1492543833003,-6.1,6.01,90.14,68.79,975.71,-28.69,,,,,,,
3783380,1492543832954,-5.79,5.66,90.19,66.35,981.81,-28.93,,,,,,,
3783379,1492543832903,-5.45,5.3,90.24,67.32,979.86,-29.42,,,,,,,
3783378,1492543832854,-5.12,4.93,90.29,64.88,978.15,-29.66,,,,,,,
3783377,1492543832802,-4.79,4.57,90.34,67.32,978.15,-24.29,,,,,,,
3783376,1492543832753,-4.47,4.22,90.38,66.59,981.57,-26,,,,,,,
3783375,1492543832704,-4.18,3.9,90.43,65.61,982.06,-23.56,,,,,,,
3783374,1492543832653,-3.92,3.62,90.46,65.86,981.08,-24.78,,,,,,,
3783373,1492543832604,-3.71,3.39,90.49,66.83,977.66,-29.17,,,,,,,
3783372,1492543832553,-3.54,3.21,90.52,68.79,977.17,-29.66,,,,,,,
3783371,1492543832503,-3.42,3.08,90.53,68.79,978.39,-22.34,,,,,,,
3783370,1492543832452,-3.37,3.02,90.54,68.3,974.73,-23.07,,,,,,,
3783369,1492543832403,-3.37,3.02,90.54,64.39,978.64,-28.69,,,,,,,
3783368,1492543832354,-3.43,3.09,90.53,62.68,978.64,-24.29,,,,,,,
3783367,1492543832303,-3.54,3.21,90.51,65.37,982.79,-32.1,,,,,,,
3783366,1492543832254,-3.71,3.39,90.48,63.9,978.39,-28.44,,,,,,,
3783365,1492543832202,-3.92,3.63,90.45,67.81,981.08,-29.91,,,,,,,
3783364,1492543832153,-4.18,3.91,90.41,66.83,983.76,-25.51,,,,,,,
3783363,1492543832104,-4.47,4.23,90.37,67.08,980.35,-30.64,,,,,,,
3783362,1492543832053,-4.79,4.58,90.32,66.59,980.59,-30.4,,,,,,,
3783361,1492543832004,-5.12,4.94,90.27,71.23,980.59,-30.4,,,,,,,
3783360,1492543831953,-5.46,5.31,90.22,66.1,983.03,-33.33,,,,,,,
3783359,1492543831903,-5.79,5.68,90.17,67.08,980.1,-30.4,,,,,,,
3783358,1492543831852,-6.11,6.04,90.12,64.15,981.81,-26.98,,,,,,,
3783357,1492543831803,-6.41,6.36,90.07,68.54,979.37,-25.27,,,,,,,
3783356,1492543831754,-6.67,6.65,90.03,72.94,976.93,-25.02,,,,,,,
3783355,1492543831703,-6.89,6.9,90,66.35,980.35,-22.09,,,,,,,
3783354,1492543831654,-7.07,7.09,89.98,68.05,980.35,-23.32,,,,,,,
3783353,1492543831602,-7.19,7.22,89.96,69.52,975.95,-30.15,,,,,,,
3783352,1492543831553,-7.26,7.29,89.95,69.52,979.37,-24.05,,,,,,,
3783351,1492543831502,-7.27,7.31,89.95,67.08,977.66,-25.76,,,,,,,
3783350,1492543831453,-7.23,7.25,89.96,67.32,975.71,-27.22,,,,,,,
3783349,1492543831404,-7.12,7.14,89.97,68.54,983.52,-24.78,,,,,,,
3783348,1492543831352,-6.96,6.96,90,65.61,978.15,-29.17,,,,,,,
3783347,1492543831303,-6.75,6.73,90.03,65.86,981.81,-28.93,,,,,,,
3783346,1492543831252,-6.5,6.45,90.07,64.64,981.32,-25.02,,,,,,,
3783345,1492543831203,-6.21,6.14,90.11,66.83,983.52,-29.66,,,,,,,
3783344,1492543831154,-5.9,5.8,90.15,63.17,981.32,-23.56,,,,,,,
3783343,1492543831103,-5.57,5.44,90.21,67.32,976.68,-32.1,,,,,,,
3783342,1492543831053,-5.23,5.06,90.26,69.76,974.98,-30.64,,,,,,,
3783341,1492543831002,-4.9,4.7,90.31,68.54,982.79,-21.61,,,,,,,
3783340,1492543830953,-4.57,4.34,90.36,66.83,976.93,-30.88,,,,,,,
3783339,1492543830902,-4.27,4.01,90.41,62.19,980.1,-24.78,,,,,,,
3783338,1492543830853,-4,3.71,90.45,67.08,979.86,-26.49,,,,,,,
3783337,1492543830804,-3.77,3.46,90.48,66.59,977.17,-26.98,,,,,,,
3783336,1492543830752,-3.58,3.26,90.5,64.15,976.93,-24.78,,,,,,,
3783335,1492543830703,-3.45,3.12,90.53,63.17,977.91,-27.47,,,,,,,
3783334,1492543830652,-3.37,3.03,90.54,69.03,974,-25.02,,,,,,,
3783333,1492543830603,-3.35,3,90.54,66.83,977.66,-31.37,,,,,,,
3783332,1492543830552,-3.4,3.05,90.54,64.64,980.83,-30.15,,,,,,,
3783331,1492543830503,-3.49,3.15,90.53,69.27,979.61,-27.71,,,,,,,
3783330,1492543830453,-3.64,3.32,90.51,66.83,980.35,-29.42,,,,,,,
3783329,1492543830402,-3.84,3.54,90.48,69.52,979.86,-34.55,,,,,,,
3783328,1492543830353,-4.09,3.8,90.44,65.12,979.13,-21.85,,,,,,,
3783327,1492543830302,-4.37,4.11,90.4,69.76,981.08,-28.44,,,,,,,
3783326,1492543830253,-4.68,4.45,90.35,68.79,989.62,-30.4,,,,,,,
3783325,1492543830202,-5,4.81,90.31,65.86,982.54,-30.64,,,,,,,
3783324,1492543830152,-5.34,5.18,90.25,67.81,982.54,-28.2,,,,,,,
3783323,1492543830103,-5.67,5.55,90.2,67.32,978.64,-27.71,,,,,,,
3783322,1492543830052,-6,5.91,90.15,66.1,981.32,-32.84,,,,,,,
3783321,1492543830003,-6.31,6.24,90.1,66.83,979.86,-27.71,,,,,,,
3783320,1492543829952,-6.59,6.55,90.06,67.81,979.61,-28.44,,,,,,,
3783319,1492543829903,-6.82,6.81,90.02,67.32,976.2,-25.27,,,,,,,
3783318,1492543829853,-7.02,7.02,90,66.59,974,-26.49,,,,,,,
3783317,1492543829802,-7.16,7.18,89.97,68.79,978.64,-31.13,,,,,,,
3783316,1492543829753,-7.25,7.27,89.96,66.83,976.44,-29.42,,,,,,,
3783315,1492543829702,-7.28,7.31,89.96,68.3,976.44,-34.55,,,,,,,
3783314,1492543829653,-7.25,7.28,89.96,64.15,978.15,-26.73,,,,,,,
3783313,1492543829601,-7.17,7.18,89.97,63.9,977.17,-27.95,,,,,,,
3783312,1492543829552,-7.02,7.03,89.99,67.57,982.79,-27.47,,,,,,,
3783311,1492543829503,-6.83,6.82,90.02,67.32,980.35,-27.71,,,,,,,
3783310,1492543829452,-6.59,6.56,90.06,67.57,983.03,-32.1,,,,,,,
3783309,1492543829403,-6.32,6.26,90.09,66.59,982.3,-23.8,,,,,,,
3783308,1492543829352,-6.01,5.92,90.14,65.61,979.37,-28.69,,,,,,,
3783307,1492543829302,-5.68,5.57,90.19,69.76,980.35,-27.22,,,,,,,
3783306,1492543829251,-5.35,5.19,90.24,65.86,979.86,-30.15,,,,,,,
3783305,1492543829202,-5.01,4.82,90.29,60.73,980.83,-31.13,,,,,,,
3783304,1492543829153,-4.68,4.46,90.34,66.59,982.54,-27.71,,,,,,,
3783303,1492543829102,-4.37,4.12,90.39,69.52,979.86,-28.2,,,,,,,
3783302,1492543829053,-4.09,3.82,90.43,62.44,979.61,-27.22,,,,,,,
3783301,1492543829001,-3.85,3.55,90.47,67.81,975.71,-21.12,,,,,,,
3783300,1492543828952,-3.64,3.32,90.5,68.05,978.88,-22.58,,,,,,,
3783299,1492543828901,-3.49,3.15,90.52,67.57,977.66,-38.94,,,,,,,
3783298,1492543828852,-3.39,3.05,90.54,60.97,979.13,-30.64,,,,,,,
3783297,1492543828803,-3.35,3,90.54,66.59,981.57,-25.02,,,,,,,
3783296,1492543828752,-3.37,3.02,90.54,69.76,976.68,-28.69,,,,,,,
3783295,1492543828702,-3.44,3.1,90.54,66.35,977.66,-27.95,,,,,,,
3783294,1492543828651,-3.57,3.24,90.52,67.32,975.22,-25.76,,,,,,,
3783293,1492543828602,-3.75,3.44,90.49,68.54,974.98,-27.95,,,,,,,
3783292,1492543828553,-3.99,3.7,90.46,62.93,982.3,-27.47,,,,,,,
3783291,1492543828502,-4.26,4,90.41,68.3,979.86,-28.2,,,,,,,
3783290,1492543828453,-4.56,4.33,90.37,67.57,982.54,-33.57,,,,,,,
3783289,1492543828401,-4.89,4.68,90.32,69.76,982.06,-28.69,,,,,,,
3783288,1492543828352,-5.23,5.05,90.28,71.47,984.01,-31.37,,,,,,,
3783287,1492543828301,-5.57,5.42,90.22,68.3,981.08,-30.15,,,,,,,
3783286,1492543828252,-5.9,5.79,90.17,70.5,980.59,-33.57,,,,,,,
3783285,1492543828203,-6.21,6.14,90.12,66.59,976.68,-28.69,,,,,,,
3783284,1492543828151,-6.5,6.45,90.08,62.19,978.39,-29.17,,,,,,,
3783283,1492543828102,-6.76,6.74,90.04,68.05,978.15,-26.49,,,,,,,
3783282,1492543828051,-6.97,6.97,90.01,68.54,977.91,-32.59,,,,,,,
3783281,1492543828002,-7.13,7.14,89.99,68.05,977.17,-29.91,,,,,,,
3783280,1492543827951,-7.24,7.27,89.97,69.27,979.13,-29.91,,,,,,,
3783279,1492543827902,-7.3,7.32,89.96,68.54,976.44,-29.91,,,,,,,
3783278,1492543827852,-7.29,7.32,89.96,63.42,977.42,-26,,,,,,,
3783277,1492543827801,-7.23,7.25,89.97,67.57,980.59,-30.15,,,,,,,
3783276,1492543827752,-7.11,7.11,89.99,64.88,977.91,-28.2,,,,,,,
3783275,1492543827701,-6.93,6.92,90.01,68.05,980.83,-27.71,,,,,,,
3783274,1492543827652,-6.71,6.68,90.05,66.59,981.57,-30.88,,,,,,,
3783273,1492543827601,-6.44,6.39,90.09,67.81,975.22,-27.71,,,,,,,
3783272,1492543827551,-6.15,6.06,90.13,66.1,981.32,-33.81,,,,,,,
3783271,1492543827502,-5.83,5.71,90.18,69.27,982.06,-24.05,,,,,,,
3783270,1492543827451,-5.49,5.35,90.23,67.32,980.59,-32.35,,,,,,,
3783269,1492543827402,-5.15,4.97,90.29,71.23,980.35,-22.83,,,,,,,
3783268,1492543827351,-4.82,4.6,90.34,69.27,977.66,-30.88,,,,,,,
3783267,1492543827302,-4.49,4.25,90.38,67.08,976.93,-29.42,,,,,,,
3783266,1492543827252,-4.2,3.93,90.43,67.81,977.17,-33.33,,,,,,,
3783265,1492543827201,-3.93,3.64,90.47,64.15,978.64,-33.57,,,,,,,
3783264,1492543827152,-3.71,3.4,90.5,67.57,979.13,-27.71,,,,,,,
3783263,1492543827101,-3.54,3.21,90.53,65.61,976.2,-28.2,,,,,,,
3783262,1492543827052,-3.42,3.08,90.54,65.86,979.13,-26.25,,,,,,,
3783261,1492543827000,-3.35,3.01,90.55,68.79,977.66,-21.36,,,,,,,
3783260,1492543826951,-3.35,3,90.55,63.9,976.93,-23.8,,,,,,,
3783259,1492543826902,-3.4,3.06,90.54,66.83,977.17,-22.58,,,,,,,
3783258,1492543826851,-3.51,3.18,90.52,68.79,979.86,-26.49,,,,,,,
3783257,1492543826802,-3.67,3.36,90.49,68.05,979.61,-24.54,,,,,,,
3783256,1492543826751,-3.89,3.6,90.46,66.83,982.3,-33.08,,,,,,,
3783255,1492543826701,-4.14,3.88,90.42,68.54,980.59,-25.51,,,,,,,
3783254,1492543826650,-4.44,4.2,90.38,67.32,978.64,-30.64,,,,,,,
3783253,1492543826601,-4.76,4.55,90.33,64.15,976.44,-26.25,,,,,,,
3783252,1492543826552,-5.09,4.92,90.28,67.08,979.61,-27.95,,,,,,,
3783251,1492543826501,-5.43,5.29,90.22,68.05,976.68,-26.25,,,,,,,
3783250,1492543826452,-5.77,5.66,90.17,65.37,977.66,-28.44,,,,,,,
3783249,1492543826400,-6.09,6.01,90.13,67.57,978.64,-26.73,,,,,,,
3783248,1492543826351,-6.39,6.34,90.09,64.39,978.15,-29.42,,,,,,,
3783247,1492543826302,-6.67,6.64,90.05,69.03,981.57,-30.4,,,,,,,
3783246,1492543826251,-6.89,6.89,90.01,67.57,976.68,-26.25,,,,,,,
3783245,1492543826202,-7.08,7.09,89.98,67.57,979.13,-26.73,,,,,,,
3783244,1492543826151,-7.21,7.23,89.97,65.61,979.37,-26.73,,,,,,,
3783243,1492543826101,-7.28,7.31,89.96,66.59,977.66,-27.95,,,,,,,
3783242,1492543826050,-7.3,7.33,89.95,70.98,976.2,-24.78,,,,,,,
3783241,1492543826001,-7.25,7.28,89.96,69.03,980.1,-23.8,,,,,,,
3783240,1492543825952,-7.15,7.17,89.97,66.83,981.08,-26.98,,,,,,,
3783239,1492543825901,-6.99,7,89.99,68.05,979.13,-32.35,,,,,,,
3783238,1492543825852,-6.78,6.77,90.02,70.25,984.01,-24.29,,,,,,,
3783237,1492543825800,-6.53,6.49,90.06,68.05,979.37,-31.86,,,,,,,
3783236,1492543825751,-6.24,6.18,90.1,66.59,979.13,-26.73,,,,,,,
3783235,1492543825700,-5.92,5.83,90.14,66.35,980.83,-32.35,,,,,,,
3783234,1492543825651,-5.59,5.47,90.2,67.08,981.32,-31.13,,,,,,,
3783233,1492543825602,-5.25,5.1,90.25,69.52,980.83,-27.47,,,,,,,
3783232,1492543825551,-4.91,4.72,90.31,65.61,984.74,-24.54,,,,,,,
3783231,1492543825501,-4.58,4.36,90.35,66.1,979.86,-31.13,,,,,,,
3783230,1492543825450,-4.27,4.03,90.4,66.83,978.88,-29.42,,,,,,,
3783229,1492543825401,-4,3.72,90.44,63.66,981.08,-28.44,,,,,,,
3783228,1492543825350,-3.76,3.46,90.47,68.3,979.86,-31.86,,,,,,,
3783227,1492543825301,-3.56,3.25,90.5,70.5,979.61,-24.29,,,,,,,
3783226,1492543825252,-3.42,3.1,90.52,65.12,978.64,-30.4,,,,,,,
3783225,1492543825200,-3.34,3,90.54,68.05,981.32,-26.98,,,,,,,
3783224,1492543825151,-3.31,2.97,90.54,64.88,979.13,-26.49,,,,,,,
3783223,1492543825100,-3.35,3.01,90.54,65.12,978.39,-25.02,,,,,,,
3783222,1492543825051,-3.44,3.11,90.52,65.37,976.2,-26.98,,,,,,,
3783221,1492543825002,-3.58,3.27,90.5,64.88,975.71,-29.17,,,,,,,
3783220,1492543824950,-3.78,3.49,90.47,67.81,979.86,-33.33,,,,,,,
3783219,1492543824901,-4.03,3.76,90.44,67.32,977.66,-29.91,,,,,,,
3783218,1492543824850,-4.31,4.06,90.4,65.12,978.88,-23.56,,,,,,,
3783217,1492543824801,-4.62,4.4,90.35,69.03,980.1,-28.44,,,,,,,
3783216,1492543824750,-4.95,4.76,90.3,67.32,986.21,-32.84,,,,,,,
3783215,1492543824701,-5.3,5.14,90.26,64.15,981.81,-21.12,,,,,,,
3783214,1492543824651,-5.64,5.51,90.2,67.57,979.86,-32.84,,,,,,,
3783213,1492543824600,-5.97,5.88,90.15,66.59,984.01,-29.42,,,,,,,
3783212,1492543824551,-6.29,6.22,90.11,61.71,979.61,-25.02,,,,,,,
3783211,1492543824500,-6.57,6.53,90.07,66.83,979.13,-23.32,,,,,,,
3783210,1492543824451,-6.82,6.8,90.03,63.9,979.61,-26.73,,,,,,,
3783209,1492543824400,-7.03,7.03,90,69.76,979.13,-24.54,,,,,,,
3783208,1492543824350,-7.18,7.19,89.98,70.01,976.44,-33.33,,,,,,,
3783207,1492543824301,-7.27,7.29,89.97,66.1,975.95,-31.13,,,,,,,
3783206,1492543824250,-7.31,7.34,89.96,65.61,978.15,-27.71,,,,,,,
3783205,1492543824201,-7.29,7.31,89.96,67.32,979.61,-28.69,,,,,,,
3783204,1492543824150,-7.21,7.23,89.98,65.61,982.06,-23.32,,,,,,,
3783203,1492543824101,-7.08,7.08,89.99,64.88,978.88,-28.2,,,,,,,
3783202,1492543824049,-6.89,6.87,90.02,62.68,978.88,-27.95,,,,,,,
3783201,1492543824000,-6.65,6.62,90.05,64.64,978.39,-29.66,,,,,,,
3783200,1492543823951,-6.37,6.32,90.09,69.52,979.61,-29.42,,,,,,,
3783199,1492543823900,-6.07,5.98,90.14,69.03,976.44,-31.62,,,,,,,
3783198,1492543823851,-5.74,5.62,90.19,67.08,979.86,-29.66,,,,,,,
3783197,1492543823799,-5.39,5.24,90.24,67.32,981.32,-28.69,,,,,,,
3783196,1492543823750,-5.05,4.87,90.3,68.79,981.08,-25.51,,,,,,,
3783195,1492543823701,-4.71,4.5,90.34,67.57,983.03,-26.73,,,,,,,
3783194,1492543823650,-4.39,4.15,90.39,68.3,979.37,-25.02,,,,,,,
3783193,1492543823601,-4.1,3.83,90.43,62.93,983.28,-29.17,,,,,,,
3783192,1492543823550,-3.84,3.55,90.47,70.74,978.64,-21.61,,,,,,,
3783191,1492543823500,-3.62,3.32,90.5,69.03,978.15,-30.64,,,,,,,
3783190,1492543823449,-3.46,3.14,90.52,67.81,978.39,-24.78,,,,,,,
3783189,1492543823400,-3.36,3.03,90.54,69.03,979.61,-30.64,,,,,,,
3783188,1492543823351,-3.31,2.97,90.54,71.96,974.49,-30.15,,,,,,,
3783187,1492543823300,-3.32,2.98,90.54,65.12,978.39,-26,,,,,,,
3783186,1492543823251,-3.38,3.06,90.53,68.05,979.13,-31.86,,,,,,,
3783185,1492543823199,-3.52,3.2,90.51,65.86,982.3,-31.86,,,,,,,
3783184,1492543823150,-3.7,3.4,90.49,67.57,977.66,-25.27,,,,,,,
3783183,1492543823099,-3.93,3.65,90.45,64.64,978.64,-30.4,,,,,,,
3783182,1492543823050,-4.2,3.95,90.41,68.79,982.3,-30.64,,,,,,,
3783181,1492543823001,-4.5,4.28,90.36,67.32,978.64,-23.8,,,,,,,
3783180,1492543822950,-4.83,4.63,90.32,69.27,980.59,-26.25,,,,,,,
3783179,1492543822900,-5.17,5.01,90.27,64.39,979.13,-30.15,,,,,,,
3783178,1492543822849,-5.51,5.38,90.21,70.74,979.13,-22.09,,,,,,,
3783177,1492543822800,-5.85,5.75,90.16,64.88,977.42,-29.42,,,,,,,
3783176,1492543822751,-6.17,6.11,90.11,64.39,979.37,-20.39,,,,,,,
3783175,1492543822700,-6.47,6.43,90.07,69.52,976.93,-25.27,,,,,,,
3783174,1492543822651,-6.73,6.72,90.03,66.35,980.83,-26.98,,,,,,,
3783173,1492543822599,-6.96,6.96,90,69.76,973.75,-33.08,,,,,,,
3783172,1492543822550,-7.13,7.14,89.97,66.59,977.91,-28.69,,,,,,,
3783171,1492543822499,-7.24,7.27,89.95,69.03,977.91,-27.47,,,,,,,
3783170,1492543822450,-7.3,7.34,89.94,66.35,977.42,-25.02,,,,,,,
3783169,1492543822401,-7.3,7.34,89.95,67.08,974.24,-30.4,,,,,,,
3783168,1492543822349,-7.24,7.27,89.95,67.08,979.37,-22.58,,,,,,,
3783167,1492543822300,-7.12,7.14,89.97,63.66,978.88,-22.58,,,,,,,
3783166,1492543822249,-6.95,6.95,89.99,68.79,977.66,-30.4,,,,,,,
3783165,1492543822200,-6.73,6.71,90.03,68.54,978.88,-26,,,,,,,
3783164,1492543822149,-6.47,6.43,90.06,64.15,980.83,-27.95,,,,,,,
3783163,1492543822100,-6.17,6.1,90.11,69.03,977.42,-28.44,,,,,,,
3783162,1492543822050,-5.85,5.75,90.16,63.9,980.59,-32.1,,,,,,,
3783161,1492543821999,-5.51,5.38,90.22,70.74,977.66,-31.37,,,,,,,
3783160,1492543821950,-5.17,5.01,90.27,70.98,979.61,-30.88,,,,,,,
3783159,1492543821899,-4.83,4.63,90.32,66.35,979.13,-26.25,,,,,,,
3783158,1492543821850,-4.5,4.28,90.37,67.57,979.61,-34.3,,,,,,,
3783157,1492543821799,-4.2,3.95,90.42,65.37,979.61,-26.73,,,,,,,
3783156,1492543821749,-3.93,3.65,90.45,67.32,978.15,-26.49,,,,,,,
3783155,1492543821700,-3.7,3.4,90.48,68.79,978.39,-22.09,,,,,,,
3783154,1492543821649,-3.51,3.21,90.5,66.83,977.91,-25.27,,,,,,,
3783153,1492543821600,-3.38,3.07,90.52,65.37,981.08,-25.51,,,,,,,
3783152,1492543821549,-3.31,2.99,90.53,69.03,978.39,-30.15,,,,,,,
3783151,1492543821500,-3.31,2.98,90.53,68.3,981.32,-26.49,,,,,,,
3783150,1492543821448,-3.36,3.04,90.52,68.3,976.68,-31.86,,,,,,,
3783149,1492543821399,-3.46,3.16,90.5,68.05,979.61,-26.73,,,,,,,
3783148,1492543821350,-3.63,3.33,90.48,69.03,978.15,-23.07,,,,,,,
3783147,1492543821299,-3.84,3.56,90.45,67.08,978.39,-29.66,,,,,,,
3783146,1492543821250,-4.1,3.84,90.42,68.3,978.88,-26.25,,,,,,,
3783145,1492543821199,-4.39,4.16,90.37,66.83,976.93,-29.66,,,,,,,
3783144,1492543821149,-4.71,4.51,90.33,68.3,975.95,-28.93,,,,,,,
3783143,1492543821100,-5.05,4.88,90.27,69.76,983.03,-31.62,,,,,,,
3783142,1492543821049,-5.39,5.26,90.23,70.01,982.54,-26.73,,,,,,,
3783141,1492543821000,-5.74,5.63,90.17,65.61,979.61,-28.69,,,,,,,
3783140,1492543820949,-6.06,5.99,90.12,67.57,981.81,-18.92,,,,,,,
3783139,1492543820900,-6.37,6.33,90.07,67.32,980.1,-29.17,,,,,,,
3783138,1492543820848,-6.64,6.63,90.03,70.01,985.72,-27.22,,,,,,,
3783137,1492543820799,-6.88,6.89,89.99,68.79,976.68,-25.27,,,,,,,
3783136,1492543820750,-7.07,7.09,89.96,64.15,981.08,-29.42,,,,,,,
3783135,1492543820699,-7.21,7.24,89.94,64.88,978.39,-23.56,,,,,,,
3783134,1492543820650,-7.28,7.33,89.92,66.35,980.59,-27.95,,,,,,,
3783133,1492543820598,-7.31,7.35,89.92,67.32,974.73,-31.13,,,,,,,
3783132,1492543820549,-7.27,7.31,89.93,68.05,979.37,-27.71,,,,,,,
3783131,1492543820498,-7.18,7.21,89.95,66.35,978.15,-27.47,,,,,,,
3783130,1492543820449,-7.02,7.04,89.97,64.88,978.39,-22.58,,,,,,,
3783129,1492543820400,-6.82,6.81,90,65.12,980.1,-28.44,,,,,,,
3783128,1492543820349,-6.57,6.55,90.04,65.61,978.88,-32.1,,,,,,,
3783127,1492543820299,-6.28,6.23,90.09,66.59,981.32,-35.03,,,,,,,
3783126,1492543820248,-5.97,5.89,90.14,70.98,977.66,-28.69,,,,,,,
3783125,1492543820199,-5.64,5.52,90.19,66.83,980.1,-28.93,,,,,,,
3783124,1492543820150,-5.3,5.15,90.25,64.15,980.35,-30.64,,,,,,,
3783123,1492543820099,-4.95,4.77,90.3,64.39,978.88,-30.15,,,,,,,
3783122,1492543820050,-4.62,4.41,90.35,64.88,982.54,-27.22,,,,,,,
3783121,1492543819998,-4.3,4.06,90.4,67.08,977.66,-26.98,,,,,,,
3783120,1492543819949,-4.02,3.75,90.44,64.88,979.37,-26,,,,,,,
3783119,1492543819898,-3.77,3.48,90.48,66.83,980.83,-26.25,,,,,,,
3783118,1492543819849,-3.57,3.27,90.5,66.35,975.95,-28.93,,,,,,,
3783117,1492543819800,-3.42,3.1,90.52,69.03,977.91,-26.73,,,,,,,
3783116,1492543819749,-3.32,3,90.53,68.3,976.44,-25.02,,,,,,,
3783115,1492543819699,-3.29,2.97,90.55,67.57,980.1,-25.76,,,,,,,
3783114,1492543819648,-3.32,3,90.54,65.37,979.37,-23.8,,,,,,,
3783113,1492543819599,-3.41,3.09,90.53,64.88,979.61,-28.2,,,,,,,
3783112,1492543819548,-3.55,3.25,90.51,67.08,976.93,-31.86,,,,,,,
3783111,1492543819499,-3.75,3.46,90.48,66.59,977.42,-31.37,,,,,,,
3783110,1492543819450,-3.99,3.73,90.45,66.59,984.01,-29.42,,,,,,,
3783109,1492543819398,-4.28,4.03,90.41,67.32,982.79,-29.91,,,,,,,
3783108,1492543819349,-4.59,4.37,90.37,70.98,977.66,-29.17,,,,,,,
3783107,1492543819298,-4.93,4.74,90.32,70.25,980.59,-31.37,,,,,,,
3783106,1492543819249,-5.27,5.11,90.27,63.9,980.35,-23.8,,,,,,,
3783105,1492543819198,-5.62,5.49,90.21,69.27,977.66,-24.05,,,,,,,
3783104,1492543819148,-5.95,5.85,90.16,70.98,977.66,-29.17,,,,,,,
3783103,1492543819099,-6.27,6.2,90.11,67.08,980.59,-28.2,,,,,,,
3783102,1492543819048,-6.56,6.52,90.06,65.37,978.64,-27.47,,,,,,,
3783101,1492543818999,-6.82,6.8,90.02,67.57,977.66,-26.49,,,,,,,
3783100,1492543818948,-7.03,7.03,90,67.81,978.39,-29.66,,,,,,,
3783099,1492543818899,-7.18,7.2,89.97,69.52,979.86,-25.51,,,,,,,
3783098,1492543818849,-7.29,7.31,89.96,64.15,976.44,-34.55,,,,,,,
3783097,1492543818798,-7.33,7.36,89.96,67.81,973.75,-31.37,,,,,,,
3783096,1492543818749,-7.32,7.34,89.96,68.54,976.93,-29.42,,,,,,,
3783095,1492543818698,-7.24,7.26,89.97,66.59,979.37,-26.25,,,,,,,
3783094,1492543818649,-7.11,7.11,89.99,68.3,976.44,-30.15,,,,,,,
3783093,1492543818598,-6.92,6.91,90.01,68.54,978.64,-19.65,,,,,,,
3783092,1492543818548,-6.69,6.66,90.05,67.32,981.08,-29.66,,,,,,,
3783091,1492543818499,-6.41,6.36,90.09,64.64,976.2,-31.13,,,,,,,
3783090,1492543818448,-6.11,6.03,90.13,65.37,980.83,-26.73,,,,,,,
3783089,1492543818399,-5.77,5.66,90.18,65.61,984.01,-23.32,,,,,,,
3783088,1492543818348,-5.43,5.29,90.23,66.59,981.32,-32.35,,,,,,,
3783087,1492543818299,-5.08,4.91,90.29,69.76,981.08,-24.05,,,,,,,
3783086,1492543818247,-4.74,4.53,90.34,70.25,979.86,-20.87,,,,,,,
3783085,1492543818198,-4.41,4.18,90.38,62.68,980.1,-31.13,,,,,,,
3783084,1492543818149,-4.11,3.86,90.43,70.25,978.64,-21.85,,,,,,,
3783083,1492543818098,-3.85,3.57,90.46,65.86,981.32,-19.65,,,,,,,
3783082,1492543818049,-3.63,3.33,90.49,69.52,981.32,-19.41,,,,,,,
3783081,1492543817997,-3.46,3.15,90.52,66.59,974.73,-31.37,,,,,,,
3783080,1492543817948,-3.35,3.03,90.53,69.76,977.17,-27.22,,,,,,,
3783079,1492543817897,-3.29,2.97,90.54,64.64,978.64,-23.32,,,,,,,
3783078,1492543817848,-3.3,2.97,90.54,69.76,976.93,-30.88,,,,,,,
3783077,1492543817799,-3.36,3.04,90.53,69.52,975.71,-25.02,,,,,,,
3783076,1492543817748,-3.48,3.18,90.51,66.83,981.81,-21.36,,,,,,,
3783075,1492543817698,-3.66,3.37,90.49,64.88,981.81,-24.78,,,,,,,
3783074,1492543817647,-3.89,3.62,90.45,67.57,979.61,-24.05,,,,,,,
3783073,1492543817598,-4.16,3.91,90.41,71.96,984.5,-33.08,,,,,,,
3783072,1492543817547,-4.46,4.24,90.37,65.12,978.64,-31.86,,,,,,,
3783071,1492543817498,-4.8,4.6,90.32,67.57,978.88,-23.8,,,,,,,
3783070,1492543817449,-5.14,4.98,90.27,67.08,987.18,-27.95,,,,,,,
3783069,1492543817397,-5.49,5.36,90.22,69.03,979.86,-26.25,,,,,,,
3783068,1492543817348,-5.83,5.74,90.16,70.25,980.83,-31.37,,,,,,,
3783067,1492543817297,-6.16,6.1,90.11,68.3,979.86,-26.73,,,,,,,
3783066,1492543817248,-6.47,6.43,90.07,66.1,976.68,-30.88,,,,,,,
3783065,1492543817199,-6.73,6.72,90.02,66.35,980.1,-32.1,,,,,,,
3783064,1492543817148,-6.96,6.97,89.99,69.27,974,-24.78,,,,,,,
3783063,1492543817098,-7.14,7.16,89.97,64.64,977.66,-26.98,,,,,,,
3783062,1492543817047,-7.27,7.29,89.95,63.17,978.39,-28.93,,,,,,,
3783061,1492543816998,-7.33,7.36,89.95,63.42,977.91,-29.42,,,,,,,
3783060,1492543816947,-7.34,7.37,89.95,63.17,975.46,-29.91,,,,,,,
3783059,1492543816898,-7.29,7.32,89.96,65.37,981.32,-22.09,,,,,,,
3783058,1492543816849,-7.17,7.19,89.97,69.52,988.16,-26.98,,,,,,,
3783057,1492543816797,-7,7.01,89.99,66.83,976.68,-29.17,,,,,,,
3783056,1492543816748,-6.79,6.77,90.02,66.1,979.86,-30.15,,,,,,,
3783055,1492543816697,-6.52,6.49,90.06,68.54,981.57,-29.42,,,,,,,
3783054,1492543816648,-6.22,6.16,90.1,64.88,977.91,-28.2,,,,,,,
3783053,1492543816597,-5.9,5.81,90.15,66.1,979.86,-30.64,,,,,,,
3783052,1492543816548,-5.56,5.44,90.2,66.1,980.35,-28.69,,,,,,,
3783051,1492543816498,-5.21,5.05,90.26,66.83,977.66,-25.27,,,,,,,
3783050,1492543816447,-4.86,4.67,90.31,70.98,986.45,-28.93,,,,,,,
3783049,1492543816398,-4.52,4.31,90.36,68.54,981.81,-27.95,,,,,,,
3783048,1492543816347,-4.22,3.97,90.41,64.64,980.1,-30.4,,,,,,,
3783047,1492543816298,-3.94,3.67,90.45,64.64,978.88,-28.44,,,,,,,
3783046,1492543816248,-3.7,3.42,90.49,68.54,978.39,-28.44,,,,,,,
3783045,1492543816197,-3.52,3.21,90.52,66.35,979.61,-29.91,,,,,,,
3783044,1492543816148,-3.39,3.07,90.54,67.08,976.2,-26.49,,,,,,,
3783043,1492543816097,-3.31,2.99,90.55,64.15,979.37,-26.49,,,,,,,
3783042,1492543816048,-3.3,2.97,90.56,67.57,979.61,-31.62,,,,,,,
3783041,1492543815997,-3.34,3.01,90.55,66.83,980.59,-27.22,,,,,,,
3783040,1492543815947,-3.44,3.13,90.53,64.64,977.66,-20.63,,,,,,,
3783039,1492543815898,-3.61,3.3,90.52,66.59,975.46,-31.37,,,,,,,
3783038,1492543815847,-3.81,3.53,90.48,71.23,981.81,-21.36,,,,,,,
3783037,1492543815798,-4.07,3.81,90.45,65.37,978.15,-27.95,,,,,,,
3783036,1492543815747,-4.36,4.12,90.41,65.12,983.52,-33.33,,,,,,,
3783035,1492543815698,-4.68,4.47,90.36,66.35,979.86,-28.2,,,,,,,
3783034,1492543815646,-5.02,4.84,90.31,71.96,978.39,-28.2,,,,,,,
3783033,1492543815597,-5.37,5.22,90.25,68.79,982.06,-25.76,,,,,,,
3783032,1492543815548,-5.72,5.6,90.2,69.27,981.81,-32.59,,,,,,,
3783031,1492543815497,-6.06,5.97,90.15,65.61,978.15,-25.76,,,,,,,
3783030,1492543815448,-6.37,6.31,90.11,65.12,962.52,-30.88,,,,,,,
3783029,1492543815397,-6.66,6.62,90.07,68.05,976.2,-27.71,,,,,,,
3783028,1492543815347,-6.91,6.89,90.03,66.1,976.93,-34.06,,,,,,,
3783027,1492543815298,-7.11,7.1,90,67.08,977.42,-28.2,,,,,,,
3783026,1492543815247,-7.25,7.26,89.98,68.3,980.1,-30.15,,,,,,,
3783025,1492543815198,-7.34,7.36,89.97,67.08,977.91,-28.44,,,,,,,
3783024,1492543815147,-7.36,7.38,89.96,69.76,979.37,-25.51,,,,,,,
3783023,1492543815098,-7.33,7.35,89.96,62.93,981.08,-28.69,,,,,,,
3783022,1492543815046,-7.23,7.25,89.98,65.37,972.78,-27.47,,,,,,,
3783021,1492543814997,-7.08,7.09,90,66.83,986.45,-22.09,,,,,,,
3783020,1492543814948,-6.88,6.87,90.03,64.39,978.39,-25.76,,,,,,,
3783019,1492543814897,-6.63,6.6,90.06,66.35,984.74,-31.62,,,,,,,
3783018,1492543814848,-6.34,6.28,90.1,69.52,977.17,-27.71,,,,,,,
3783017,1492543814796,-6.02,5.94,90.15,70.01,981.57,-29.17,,,,,,,
3783016,1492543814747,-5.69,5.57,90.2,67.57,979.61,-28.44,,,,,,,
3783015,1492543814696,-5.34,5.19,90.26,67.57,980.35,-30.4,,,,,,,
3783014,1492543814647,-4.99,4.81,90.31,64.15,979.86,-31.62,,,,,,,
3783013,1492543814598,-4.65,4.44,90.36,65.37,980.1,-25.76,,,,,,,
3783012,1492543814547,-4.33,4.09,90.41,65.61,976.68,-30.64,,,,,,,
3783011,1492543814497,-4.04,3.77,90.45,68.54,978.88,-30.15,,,,,,,
3783010,1492543814446,-3.78,3.5,90.49,70.98,976.44,-19.41,,,,,,,
3783009,1492543814397,-3.57,3.27,90.52,68.3,980.83,-23.8,,,,,,,
3783008,1492543814346,-3.42,3.1,90.54,70.01,979.13,-30.4,,,,,,,
3783007,1492543814297,-3.31,2.99,90.55,67.57,977.42,-30.88,,,,,,,
3783006,1492543814248,-3.27,2.94,90.55,68.05,978.15,-29.17,,,,,,,
3783005,1492543814196,-3.29,2.97,90.55,64.64,980.83,-31.37,,,,,,,
3783004,1492543814147,-3.36,3.05,90.53,66.59,977.17,-29.42,,,,,,,
3783003,1492543814096,-3.5,3.2,90.51,67.32,979.61,-32.35,,,,,,,
3783002,1492543814047,-3.7,3.41,90.48,68.05,982.06,-28.93,,,,,,,
3783001,1492543813996,-3.94,3.67,90.45,65.37,980.35,-30.88,,,,,,,
3783000,1492543813947,-4.22,3.98,90.41,68.54,976.93,-23.32,,,,,,,
3782999,1492543813897,-4.53,4.32,90.36,72.45,978.39,-22.83,,,,,,,
3782998,1492543813846,-4.87,4.69,90.31,70.25,979.13,-30.4,,,,,,,
3782997,1492543813797,-5.22,5.07,90.26,66.35,981.57,-27.95,,,,,,,
3782996,1492543813746,-5.57,5.45,90.21,66.83,979.13,-32.1,,,,,,,
3782995,1492543813697,-5.92,5.83,90.16,66.83,978.88,-32.59,,,,,,,
3782994,1492543813648,-6.25,6.18,90.11,69.27,977.91,-27.47,,,,,,,
3782993,1492543813596,-6.54,6.5,90.07,67.81,981.57,-25.51,,,,,,,
3782992,1492543813547,-6.8,6.79,90.03,69.52,976.68,-26.73,,,,,,,
3782991,1492543813496,-7.02,7.02,89.99,68.54,978.64,-31.13,,,,,,,
3782990,1492543813447,-7.18,7.2,89.97,67.32,977.66,-29.42,,,,,,,
3782989,1492543813396,-7.3,7.32,89.95,68.3,981.08,-27.71,,,,,,,
3782988,1492543813346,-7.35,7.38,89.94,66.35,981.81,-29.91,,,,,,,
3782987,1492543813297,-7.34,7.37,89.95,65.37,975.71,-32.1,,,,,,,
3782986,1492543813246,-7.26,7.29,89.96,68.05,977.91,-33.33,,,,,,,
3782985,1492543813197,-7.13,7.15,89.98,64.88,982.06,-19.65,,,,,,,
3782984,1492543813146,-6.95,6.95,90,64.39,983.76,-29.17,,,,,,,
3782983,1492543813097,-6.71,6.69,90.04,66.35,980.83,-26.25,,,,,,,
3782982,1492543813047,-6.44,6.39,90.08,68.05,980.1,-30.88,,,,,,,
3782981,1492543812996,-6.13,6.06,90.12,67.08,979.13,-30.15,,,,,,,
3782980,1492543812947,-5.79,5.69,90.17,69.76,981.57,-30.4,,,,,,,
3782979,1492543812896,-5.45,5.31,90.23,65.61,978.39,-26.25,,,,,,,
3782978,1492543812847,-5.09,4.93,90.28,71.47,983.52,-33.08,,,,,,,
3782977,1492543812796,-4.75,4.55,90.33,68.3,977.42,-27.71,,,,,,,
3782976,1492543812746,-4.41,4.19,90.38,67.57,980.59,-28.93,,,,,,,
3782975,1492543812697,-4.11,3.86,90.43,65.37,982.06,-31.37,,,,,,,
3782974,1492543812646,-3.84,3.57,90.47,68.05,972.53,-30.88,,,,,,,
3782973,1492543812597,-3.61,3.32,90.5,69.27,976.68,-29.17,,,,,,,
3782972,1492543812546,-3.43,3.13,90.53,62.68,980.59,-27.22,,,,,,,
3782971,1492543812497,-3.31,3,90.54,67.32,981.57,-29.66,,,,,,,
3782970,1492543812445,-3.25,2.93,90.55,63.66,980.1,-22.09,,,,,,,
3782969,1492543812396,-3.24,2.93,90.54,67.08,978.88,-19.65,,,,,,,
3782968,1492543812347,-3.3,2.99,90.54,69.27,977.91,-34.79,,,,,,,
3782967,1492543812296,-3.42,3.12,90.52,65.86,979.13,-26.98,,,,,,,
3782966,1492543812247,-3.6,3.31,90.49,63.17,981.08,-32.59,,,,,,,
3782965,1492543812196,-3.82,3.55,90.46,68.79,983.28,-32.35,,,,,,,
3782964,1492543812146,-4.09,3.85,90.43,66.59,979.13,-28.93,,,,,,,
3782963,1492543812095,-4.4,4.18,90.39,68.54,980.83,-23.32,,,,,,,
3782962,1492543812046,-4.73,4.54,90.34,65.86,979.61,-20.63,,,,,,,
3782961,1492543811997,-5.08,4.91,90.29,69.52,982.3,-28.69,,,,,,,
3782960,1492543811946,-5.43,5.3,90.23,69.52,979.86,-29.17,,,,,,,
3782959,1492543811896,-5.78,5.68,90.17,69.03,982.79,-21.61,,,,,,,
3782958,1492543811845,-6.11,6.04,90.12,61.71,977.42,-33.57,,,,,,,
3782957,1492543811796,-6.42,6.38,90.08,66.83,978.88,-30.15,,,,,,,
3782956,1492543811747,-6.7,6.68,90.04,70.25,978.64,-26.49,,,,,,,
3782955,1492543811696,-6.93,6.93,90,68.3,981.08,-24.54,,,,,,,
3782954,1492543811647,-7.12,7.14,89.97,66.59,975.71,-30.88,,,,,,,
3782953,1492543811595,-7.25,7.28,89.95,67.32,977.17,-32.35,,,,,,,
3782952,1492543811546,-7.33,7.36,89.94,67.57,979.86,-27.95,,,,,,,
3782951,1492543811495,-7.34,7.38,89.94,66.83,980.1,-26.25,,,,,,,
3782950,1492543811446,-7.29,7.33,89.94,63.9,975.46,-26.73,,,,,,,
3782949,1492543811397,-7.19,7.21,89.96,64.88,979.13,-28.2,,,,,,,
3782948,1492543811346,-7.02,7.02,89.99,67.08,977.42,-31.62,,,,,,,
3782947,1492543811296,-6.8,6.79,90.02,68.3,984.01,-30.64,,,,,,,
3782946,1492543811245,-6.54,6.51,90.06,68.79,980.83,-24.05,,,,,,,
3782945,1492543811196,-6.24,6.18,90.1,66.1,980.59,-24.54,,,,,,,
3782944,1492543811145,-5.92,5.83,90.15,65.12,980.1,-26.49,,,,,,,
3782943,1492543811096,-5.57,5.46,90.2,67.81,981.57,-28.44,,,,,,,
3782942,1492543811047,-5.23,5.08,90.26,65.86,977.42,-26.25,,,,,,,
3782941,1492543810995,-4.88,4.69,90.32,64.64,977.17,-31.37,,,,,,,
3782940,1492543810946,-4.54,4.32,90.38,69.76,980.83,-24.54,,,,,,,
3782939,1492543810895,-4.22,3.98,90.42,66.35,981.81,-25.76,,,,,,,
3782938,1492543810846,-3.93,3.67,90.46,68.54,977.91,-27.95,,,,,,,
3782937,1492543810795,-3.68,3.4,90.49,65.61,976.68,-19.17,,,,,,,
3782936,1492543810746,-3.48,3.19,90.51,69.27,980.1,-25.02,,,,,,,
3782935,1492543810696,-3.34,3.04,90.53,63.42,976.2,-27.22,,,,,,,
3782934,1492543810645,-3.25,2.94,90.54,68.54,975.71,-30.15,,,,,,,
3782933,1492543810596,-3.23,2.92,90.54,66.59,978.88,-26.98,,,,,,,
3782932,1492543810545,-3.26,2.95,90.54,69.76,976.2,-28.2,,,,,,,
3782931,1492543810496,-3.36,3.06,90.52,67.08,978.15,-25.51,,,,,,,
3782930,1492543810444,-3.51,3.23,90.5,69.52,977.42,-29.42,,,,,,,
3782929,1492543810395,-3.72,3.45,90.47,66.35,980.83,-27.22,,,,,,,
3782928,1492543810346,-3.97,3.72,90.43,66.59,977.17,-25.27,,,,,,,
3782927,1492543810295,-4.27,4.05,90.4,66.83,979.86,-28.2,,,,,,,
3782926,1492543810246,-4.6,4.4,90.35,64.88,975.22,-25.76,,,,,,,
3782925,1492543810195,-4.95,4.77,90.3,65.37,984.01,-35.77,,,,,,,
3782924,1492543810145,-5.3,5.16,90.25,67.08,977.91,-29.91,,,,,,,
3782923,1492543810096,-5.66,5.55,90.2,68.05,979.37,-26.49,,,,,,,
3782922,1492543810045,-6,5.92,90.15,66.59,980.59,-21.85,,,,,,,
3782921,1492543809996,-6.33,6.27,90.1,62.19,980.35,-27.95,,,,,,,
3782920,1492543809945,-6.62,6.59,90.06,67.81,979.37,-29.91,,,,,,,
3782919,1492543809896,-6.87,6.86,90.02,66.59,980.1,-26.49,,,,,,,
3782918,1492543809844,-7.08,7.09,89.99,70.25,977.91,-22.58,,,,,,,
3782917,1492543809795,-7.23,7.25,89.97,66.1,977.42,-23.32,,,,,,,
3782916,1492543809746,-7.33,7.35,89.95,65.86,981.57,-27.71,,,,,,,
3782915,1492543809695,-7.36,7.39,89.95,67.08,978.39,-29.91,,,,,,,
3782914,1492543809646,-7.33,7.36,89.95,66.59,975.22,-26.49,,,,,,,
3782913,1492543809595,-7.24,7.27,89.96,65.12,978.64,-33.81,,,,,,,
3782912,1492543809545,-7.1,7.1,89.99,69.76,978.64,-30.4,,,,,,,
3782911,1492543809494,-6.9,6.89,90.02,65.86,979.86,-29.91,,,,,,,
3782910,1492543809445,-6.65,6.62,90.05,68.54,981.57,-28.93,,,,,,,
3782909,1492543809396,-6.36,6.3,90.09,71.23,974.49,-25.76,,,,,,,
3782908,1492543809345,-6.04,5.96,90.15,70.25,981.08,-29.91,,,,,,,
3782907,1492543809296,-5.7,5.59,90.2,67.32,979.61,-29.66,,,,,,,
3782906,1492543809244,-5.35,5.21,90.25,66.35,980.1,-28.44,,,,,,,
3782905,1492543809195,-4.99,4.82,90.3,64.15,981.81,-30.15,,,,,,,
3782902,1492543809046,-4.02,3.77,90.44,63.42,982.3,-28.44,,,,,,,
3782901,1492543808994,-3.75,3.48,90.48,67.81,977.17,-22.34,,,,,,,
3782900,1492543808945,-3.54,3.25,90.51,66.83,983.03,-21.85,,,,,,,
3782899,1492543808894,-3.37,3.07,90.54,66.35,979.61,-28.2,,,,,,,
3782898,1492543808845,-3.27,2.95,90.55,65.37,980.35,-26.49,,,,,,,
3782897,1492543808796,-3.22,2.91,90.56,64.64,975.46,-25.27,,,,,,,
3782896,1492543808745,-3.24,2.92,90.55,64.15,981.81,-26.98,,,,,,,
3782895,1492543808695,-3.31,3.01,90.54,65.86,981.08,-26.73,,,,,,,
3782894,1492543808644,-3.45,3.15,90.52,65.61,977.66,-26,,,,,,,
3782893,1492543808595,-3.64,3.36,90.5,69.76,976.93,-37.23,,,,,,,
3782892,1492543808544,-3.88,3.62,90.46,68.05,977.42,-26,,,,,,,
3782891,1492543808495,-4.17,3.93,90.42,65.12,978.88,-30.15,,,,,,,
3782890,1492543808446,-4.48,4.27,90.38,69.03,982.79,-27.22,,,,,,,
3782889,1492543808394,-4.82,4.63,90.32,65.86,978.15,-19.41,,,,,,,
3782888,1492543808345,-5.17,5.02,90.27,65.61,984.01,-26.25,,,,,,,
3782887,1492543808294,-5.53,5.4,90.22,68.05,981.57,-28.2,,,,,,,
3782886,1492543808245,-5.88,5.79,90.17,66.83,981.81,-31.37,,,,,,,
3782885,1492543808194,-6.21,6.15,90.12,68.05,981.57,-32.84,,,,,,,
3782884,1492543808145,-6.52,6.48,90.07,62.93,982.3,-28.44,,,,,,,
3782883,1492543808095,-6.79,6.78,90.03,64.15,974.73,-33.33,,,,,,,
3782882,1492543808044,-7.02,7.02,90,65.12,979.61,-31.62,,,,,,,
3782881,1492543807995,-7.19,7.21,89.97,66.59,976.2,-25.76,,,,,,,
3782880,1492543807944,-7.31,7.33,89.95,65.86,976.68,-33.08,,,,,,,
3782879,1492543807895,-7.36,7.39,89.94,71.72,975.22,-27.95,,,,,,,
3782878,1492543807844,-7.36,7.39,89.95,65.86,979.13,-25.51,,,,,,,
3782877,1492543807794,-7.29,7.32,89.96,71.72,977.66,-26.98,,,,,,,
3782876,1492543807745,-7.16,7.18,89.97,68.05,976.93,-27.71,,,,,,,
3782875,1492543807694,-6.98,6.98,90,68.79,980.35,-30.64,,,,,,,
3782874,1492543807645,-6.75,6.73,90.03,65.37,981.57,-22.09,,,,,,,
3782873,1492543807594,-6.47,6.43,90.06,67.08,980.59,-30.15,,,,,,,
3782872,1492543807544,-6.16,6.1,90.11,66.59,978.88,-31.37,,,,,,,
3782871,1492543807495,-5.82,5.73,90.16,67.32,980.59,-25.02,,,,,,,
3782870,1492543807444,-5.47,5.35,90.22,65.86,978.15,-30.64,,,,,,,
3782869,1492543807395,-5.11,4.96,90.27,68.05,978.64,-22.09,,,,,,,
3782868,1492543807344,-4.76,4.58,90.32,68.79,979.13,-26.25,,,,,,,
3782867,1492543807295,-4.42,4.22,90.37,63.66,982.3,-32.1,,,,,,,
3782866,1492543807243,-4.11,3.88,90.42,67.08,982.06,-32.59,,,,,,,
3782865,1492543807194,-3.83,3.57,90.46,66.35,982.06,-34.55,,,,,,,
3782864,1492543807145,-3.59,3.32,90.49,66.59,977.91,-28.69,,,,,,,
3782863,1492543807094,-3.41,3.12,90.51,66.59,977.42,-24.29,,,,,,,
3782862,1492543807045,-3.28,2.98,90.53,67.57,975.95,-24.78,,,,,,,
3782861,1492543806994,-3.2,2.9,90.53,67.32,977.66,-32.59,,,,,,,
3782860,1492543806944,-3.2,2.9,90.54,67.81,974.24,-28.2,,,,,,,
3782859,1492543806893,-3.25,2.96,90.52,66.59,975.71,-26.73,,,,,,,
3782858,1492543806844,-3.37,3.08,90.51,63.42,978.39,-27.47,,,,,,,
3782857,1492543806795,-3.54,3.27,90.48,64.39,981.08,-26.25,,,,,,,
3782856,1492543806744,-3.77,3.52,90.45,64.39,979.37,-26.98,,,,,,,
3782855,1492543806695,-4.04,3.81,90.41,69.76,979.61,-32.1,,,,,,,
3782854,1492543806643,-4.35,4.14,90.37,66.59,981.57,-28.69,,,,,,,
3782853,1492543806594,-4.68,4.5,90.32,68.79,978.39,-32.59,,,,,,,
3782852,1492543806545,-5.03,4.88,90.27,68.05,979.13,-28.44,,,,,,,
3782851,1492543806494,-5.39,5.27,90.21,66.1,982.54,-30.64,,,,,,,
3782850,1492543806445,-5.74,5.65,90.16,70.5,983.28,-28.44,,,,,,,
3782849,1492543806394,-6.08,6.02,90.11,66.1,977.42,-23.56,,,,,,,
3782848,1492543806344,-6.4,6.37,90.06,68.54,979.61,-29.91,,,,,,,
3782847,1492543806293,-6.69,6.68,90.02,68.79,978.15,-25.76,,,,,,,
3782846,1492543806244,-6.93,6.94,89.98,67.08,975.46,-29.42,,,,,,,
3782845,1492543806195,-7.12,7.15,89.95,67.57,979.37,-32.84,,,,,,,
3782844,1492543806144,-7.27,7.3,89.94,69.27,979.37,-26.98,,,,,,,
3782843,1492543806095,-7.35,7.39,89.93,65.37,977.17,-31.13,,,,,,,
3782842,1492543806043,-7.37,7.41,89.93,69.27,976.2,-24.78,,,,,,,
3782841,1492543805994,-7.32,7.36,89.93,71.72,980.59,-24.29,,,,,,,
3782840,1492543805943,-7.21,7.24,89.95,68.3,978.64,-32.84,,,,,,,
3782839,1492543805894,-7.05,7.07,89.97,68.05,979.61,-26.98,,,,,,,
3782838,1492543805845,-6.84,6.84,90,64.64,977.17,-30.4,,,,,,,
3782837,1492543805793,-6.58,6.56,90.04,67.81,980.1,-28.69,,,,,,,
3782836,1492543805744,-6.28,6.23,90.08,68.3,977.91,-26.49,,,,,,,
3782835,1492543805693,-5.95,5.88,90.13,67.57,982.3,-30.4,,,,,,,
3782834,1492543805644,-5.6,5.5,90.19,68.05,977.66,-33.08,,,,,,,
3782833,1492543805595,-5.25,5.11,90.24,66.59,982.54,-28.69,,,,,,,
3782832,1492543805544,-4.89,4.73,90.3,66.1,977.17,-27.47,,,,,,,
3782831,1492543805494,-4.54,4.35,90.35,65.37,980.83,-26.98,,,,,,,
3782830,1492543805443,-4.22,4,90.4,68.54,979.13,-26.25,,,,,,,
3782829,1492543805394,-3.92,3.68,90.44,63.9,978.15,-26.49,,,,,,,
3782828,1492543805343,-3.67,3.4,90.47,69.03,979.61,-30.15,,,,,,,
3782827,1492543805294,-3.47,3.18,90.51,66.35,977.91,-26.49,,,,,,,
3782826,1492543805245,-3.32,3.03,90.52,67.08,976.44,-30.88,,,,,,,
3782825,1492543805193,-3.22,2.93,90.53,65.37,974.98,-25.27,,,,,,,
3782824,1492543805144,-3.19,2.89,90.54,65.86,979.13,-24.05,,,,,,,
3782823,1492543805093,-3.22,2.92,90.53,65.61,978.15,-30.88,,,,,,,
3782822,1492543805044,-3.31,3.02,90.52,67.08,975.71,-28.2,,,,,,,
3782821,1492543804993,-3.46,3.19,90.5,67.08,977.42,-22.34,,,,,,,
3782820,1492543804944,-3.67,3.41,90.47,66.59,980.59,-28.2,,,,,,,
3782819,1492543804894,-3.92,3.68,90.44,68.3,977.17,-28.69,,,,,,,
3782818,1492543804843,-4.22,4,90.39,66.83,979.61,-26.49,,,,,,,
3782817,1492543804794,-4.54,4.35,90.35,70.25,978.64,-24.54,,,,,,,
3782816,1492543804743,-4.89,4.72,90.3,68.3,981.57,-28.2,,,,,,,
3782815,1492543804694,-5.25,5.11,90.25,66.59,980.1,-30.64,,,,,,,
3782814,1492543804642,-5.6,5.5,90.19,63.42,979.86,-26.98,,,,,,,
3782813,1492543804593,-5.95,5.88,90.14,66.1,981.81,-28.93,,,,,,,
3782812,1492543804544,-6.28,6.23,90.09,68.05,980.59,-30.4,,,,,,,
3782811,1492543804493,-6.58,6.55,90.05,64.88,977.91,-33.57,,,,,,,
3782810,1492543804444,-6.84,6.84,90,65.61,982.3,-29.91,,,,,,,
3782809,1492543804393,-7.05,7.07,89.97,68.05,979.13,-26.73,,,,,,,
3782808,1492543804343,-7.21,7.24,89.95,66.1,977.66,-28.69,,,,,,,
3782807,1492543804294,-7.31,7.35,89.93,66.59,979.86,-29.42,,,,,,,
3782806,1492543804243,-7.35,7.4,89.92,68.54,979.37,-22.83,,,,,,,
3782805,1492543804194,-7.34,7.38,89.93,66.83,981.57,-29.17,,,,,,,
3782804,1492543804143,-7.25,7.28,89.94,66.59,976.2,-30.15,,,,,,,
3782803,1492543804094,-7.11,7.13,89.97,68.54,980.35,-27.22,,,,,,,
3782802,1492543804042,-6.91,6.91,89.99,66.83,980.1,-26.98,,,,,,,
3782801,1492543803993,-6.66,6.65,90.03,64.15,980.59,-32.1,,,,,,,
3782800,1492543803944,-6.37,6.33,90.07,66.1,979.13,-28.69,,,,,,,
3782799,1492543803893,-6.06,5.99,90.12,66.1,981.32,-27.22,,,,,,,
3782798,1492543803844,-5.71,5.62,90.17,68.79,976.44,-29.17,,,,,,,
3782797,1492543803793,-5.36,5.23,90.23,63.9,981.81,-32.59,,,,,,,
3782796,1492543803743,-4.99,4.84,90.29,67.57,980.35,-31.13,,,,,,,
3782795,1492543803692,-4.64,4.46,90.34,65.12,981.32,-35.52,,,,,,,
3782794,1492543803643,-4.31,4.09,90.39,69.52,976.44,-27.95,,,,,,,
3782793,1492543803594,-4.01,3.77,90.43,66.1,978.15,-29.17,,,,,,,
3782792,1492543803543,-3.73,3.47,90.47,64.64,983.03,-32.84,,,,,,,
3782791,1492543803494,-3.51,3.23,90.5,64.88,979.61,-31.62,,,,,,,
3782790,1492543803442,-3.34,3.05,90.53,66.1,980.59,-22.34,,,,,,,
3782789,1492543803393,-3.22,2.92,90.55,66.35,979.61,-29.66,,,,,,,
3782788,1492543803342,-3.16,2.86,90.55,70.25,976.2,-23.07,,,,,,,
3782787,1492543803293,-3.18,2.88,90.54,64.64,978.88,-31.62,,,,,,,
3782786,1492543803244,-3.25,2.95,90.54,66.35,979.61,-32.84,,,,,,,
3782785,1492543803192,-3.38,3.09,90.52,63.9,977.42,-34.3,,,,,,,
3782784,1492543803143,-3.57,3.3,90.49,63.17,979.86,-23.07,,,,,,,
3782783,1492543803092,-3.81,3.56,90.46,66.1,981.08,-32.1,,,,,,,
3782782,1492543803043,-4.09,3.86,90.42,67.32,981.32,-26.73,,,,,,,
3782781,1492543802994,-4.41,4.21,90.37,68.05,981.08,-24.29,,,,,,,
3782780,1492543802943,-4.76,4.58,90.32,68.79,978.64,-26.49,,,,,,,
3782779,1492543802893,-5.11,4.97,90.27,66.83,976.68,-25.27,,,,,,,
3782778,1492543802842,-5.48,5.36,90.21,68.3,984.01,-29.42,,,,,,,
3782777,1492543802793,-5.84,5.75,90.16,66.35,979.37,-28.2,,,,,,,
3782776,1492543802742,-6.18,6.12,90.11,70.74,983.52,-27.71,,,,,,,
3782775,1492543802693,-6.49,6.46,90.06,69.03,978.88,-29.91,,,,,,,
3782774,1492543802644,-6.77,6.76,90.02,67.32,978.15,-36.01,,,,,,,
3782773,1492543802592,-7.01,7.01,89.99,65.61,980.59,-27.71,,,,,,,
3782772,1492543802543,-7.19,7.21,89.96,65.12,981.32,-31.62,,,,,,,
3782771,1492543802492,-7.31,7.34,89.94,66.1,977.42,-25.51,,,,,,,
3782770,1492543802443,-7.37,7.41,89.93,66.1,975.46,-26,,,,,,,
3782769,1492543802392,-7.38,7.42,89.93,65.37,976.2,-28.44,,,,,,,
3782768,1492543802343,-7.32,7.36,89.94,65.61,978.88,-25.51,,,,,,,
3782767,1492543802293,-7.2,7.22,89.96,65.37,980.35,-24.78,,,,,,,
3782766,1492543802242,-7.02,7.04,89.98,64.88,975.95,-28.93,,,,,,,
3782765,1492543802193,-6.79,6.79,90.01,66.1,978.88,-23.56,,,,,,,
3782764,1492543802142,-6.52,6.49,90.05,68.54,978.88,-26.73,,,,,,,
3782763,1492543802093,-6.21,6.15,90.1,68.05,978.64,-31.62,,,,,,,
3782762,1492543802042,-5.86,5.78,90.15,70.5,980.83,-27.95,,,,,,,
3782761,1492543801992,-5.51,5.4,90.21,66.59,978.64,-25.51,,,,,,,
3782760,1492543801943,-5.15,5.01,90.26,65.12,980.35,-28.93,,,,,,,
3782759,1492543801892,-4.78,4.61,90.31,65.86,983.52,-30.88,,,,,,,
3782758,1492543801843,-4.44,4.24,90.37,65.86,977.66,-29.17,,,,,,,
3782757,1492543801792,-4.12,3.89,90.42,68.54,980.83,-29.17,,,,,,,
3782756,1492543801743,-3.83,3.58,90.46,71.23,977.66,-26.73,,,,,,,
3782755,1492543801693,-3.59,3.32,90.49,68.3,973.27,-25.02,,,,,,,
3782754,1492543801642,-3.4,3.11,90.52,69.76,977.91,-19.65,,,,,,,
3782753,1492543801593,-3.26,2.96,90.54,66.59,981.81,-27.22,,,,,,,
3782752,1492543801542,-3.18,2.88,90.55,70.74,976.2,-27.71,,,,,,,
3782751,1492543801493,-3.16,2.86,90.55,70.25,981.32,-30.88,,,,,,,
3782750,1492543801441,-3.21,2.91,90.54,67.08,978.39,-29.91,,,,,,,
3782749,1492543801392,-3.32,3.03,90.53,68.05,977.42,-29.42,,,,,,,
3782748,1492543801343,-3.49,3.21,90.51,74.65,976.44,-27.95,,,,,,,
3782747,1492543801292,-3.7,3.44,90.47,66.59,979.13,-26,,,,,,,
3782746,1492543801243,-3.97,3.73,90.43,64.64,980.35,-29.42,,,,,,,
3782745,1492543801192,-4.27,4.06,90.39,66.1,979.13,-32.84,,,,,,,
3782744,1492543801142,-4.61,4.42,90.34,69.52,981.57,-28.93,,,,,,,
3782743,1492543801091,-4.96,4.8,90.29,69.27,982.54,-20.63,,,,,,,
3782742,1492543801042,-5.32,5.19,90.24,70.25,982.79,-31.62,,,,,,,
3782741,1492543800993,-5.68,5.58,90.19,70.25,977.17,-27.47,,,,,,,
3782740,1492543800942,-6.03,5.95,90.14,68.3,982.06,-30.64,,,,,,,
3782739,1492543800893,-6.35,6.3,90.09,70.98,981.81,-30.4,,,,,,,
3782738,1492543800841,-6.64,6.62,90.05,64.39,978.15,-28.69,,,,,,,
3782737,1492543800792,-6.89,6.89,90.01,61.95,979.13,-19.17,,,,,,,
3782736,1492543800741,-7.1,7.11,89.98,67.57,980.35,-31.13,,,,,,,
3782735,1492543800692,-7.24,7.26,89.96,67.08,978.15,-31.13,,,,,,,
3782734,1492543800643,-7.33,7.36,89.95,67.08,977.17,-21.61,,,,,,,
3782733,1492543800592,-7.35,7.38,89.95,67.57,979.37,-29.42,,,,,,,
3782732,1492543800542,-7.31,7.34,89.95,69.52,978.39,-24.29,,,,,,,
3782731,1492543800491,-7.21,7.23,89.97,64.64,982.06,-30.4,,,,,,,
3782730,1492543800442,-7.06,7.06,89.99,67.32,978.88,-30.15,,,,,,,
3782729,1492543800393,-6.84,6.83,90.02,68.05,979.13,-29.17,,,,,,,
3782728,1492543800342,-6.57,6.54,90.06,65.61,980.59,-21.36,,,,,,,
3782727,1492543800293,-6.27,6.21,90.1,67.08,979.86,-24.78,,,,,,,
3782726,1492543800241,-5.94,5.86,90.15,64.39,979.61,-30.64,,,,,,,
3782725,1492543800192,-5.59,5.47,90.21,68.54,980.83,-28.44,,,,,,,
3782724,1492543800141,-5.22,5.08,90.27,66.83,977.17,-31.62,,,,,,,
3782723,1492543800092,-4.85,4.68,90.32,66.83,979.13,-27.95,,,,,,,
3782722,1492543800043,-4.5,4.3,90.37,69.52,976.44,-25.51,,,,,,,
3782721,1492543799991,-4.16,3.94,90.42,63.9,979.13,-31.13,,,,,,,
3782720,1492543799942,-3.86,3.61,90.47,64.64,979.13,-26.73,,,,,,,
3782719,1492543799891,-3.6,3.32,90.51,67.57,977.17,-24.54,,,,,,,
3782718,1492543799842,-3.38,3.09,90.54,65.61,978.64,-31.86,,,,,,,
3782717,1492543799791,-3.22,2.92,90.56,65.61,978.15,-27.47,,,,,,,
3782716,1492543799742,-3.12,2.8,90.58,70.5,975.22,-29.17,,,,,,,
3782715,1492543799692,-3.07,2.76,90.58,67.57,980.59,-24.78,,,,,,,
3782714,1492543799641,-3.09,2.78,90.57,71.72,979.61,-30.15,,,,,,,
3782713,1492543799592,-3.17,2.87,90.56,64.64,978.15,-33.08,,,,,,,
3782712,1492543799541,-3.32,3.02,90.55,71.23,976.93,-30.64,,,,,,,
3782711,1492543799492,-3.52,3.24,90.52,64.64,981.08,-29.91,,,,,,,
3782710,1492543799443,-3.77,3.51,90.49,64.64,982.54,-29.91,,,,,,,
3782709,1492543799391,-4.06,3.82,90.44,65.61,984.99,-28.2,,,,,,,
3782708,1492543799342,-4.38,4.17,90.4,70.5,984.01,-31.62,,,,,,,
3782707,1492543799291,-4.73,4.54,90.34,68.79,979.37,-30.64,,,,,,,
3782706,1492543799242,-5.08,4.93,90.29,65.86,977.66,-25.27,,,,,,,
3782705,1492543799191,-5.44,5.32,90.23,66.83,978.64,-26.25,,,,,,,
3782704,1492543799142,-5.8,5.7,90.19,65.61,980.1,-28.93,,,,,,,
3782703,1492543799092,-6.13,6.05,90.14,66.1,977.91,-29.17,,,,,,,
3782702,1492543799041,-6.42,6.38,90.09,67.57,981.57,-25.02,,,,,,,
3782701,1492543798992,-6.68,6.66,90.05,69.76,979.13,-29.91,,,,,,,
3782700,1492543798941,-6.9,6.89,90.02,67.08,979.86,-34.06,,,,,,,
3782699,1492543798892,-7.06,7.06,89.99,67.32,974.49,-29.17,,,,,,,
3782698,1492543798840,-7.16,7.17,89.98,67.32,979.86,-25.27,,,,,,,
3782697,1492543798791,-7.2,7.21,89.97,68.3,977.91,-26.49,,,,,,,
3782696,1492543798742,-7.17,7.19,89.98,68.05,979.61,-24.05,,,,,,,
3782695,1492543798691,-7.09,7.09,89.99,68.54,977.91,-31.13,,,,,,,
3782694,1492543798642,-6.94,6.93,90.01,67.57,975.95,-23.8,,,,,,,
3782693,1492543798486,179.48,0.44,87.72,107.54,-676.64,183.04,,,,,,,
3782692,1492543798437,-179.95,-0.04,87.61,109.56,-1652.34,180.97,,,,,,,
3782691,1492543798386,-179.88,-0.1,87.49,111.69,-2001.83,178.71,,,,,,,
3782690,1492543798337,-179.92,-0.07,87.36,113.89,-521.61,176.39,,,,,,,
3782689,1492543798285,179.5,0.43,87.23,116.15,-1366.7,174.07,,,,,,,
3782688,1492543798236,179.59,0.35,87.09,118.35,1868.65,171.81,,,,,,,
3782687,1492543798187,179.9,0.09,86.96,120.42,-1088.07,169.68,,,,,,,
3782686,1492543798136,179.56,0.39,86.84,122.31,-1463.75,167.72,,,,,,,
3782685,1492543798087,-179.55,-0.4,86.74,124.02,135.68,165.95,,,,,,,
3782684,1492543798036,179.89,0.1,86.65,125.37,-1098.27,164.49,,,,,,,
3782683,1492543797986,-179.92,-0.07,86.59,126.4,-912.66,163.39,,,,,,,
3782682,1492543797935,179.86,0.12,86.55,127.14,320.13,162.6,,,,,,,
3782681,1492543797886,-179.94,-0.05,86.54,127.38,-1367.61,162.17,,,,,,,
3782680,1492543797837,179.77,0.2,86.54,127.26,-1215.03,162.17,,,,,,,
3782679,1492543797786,179.5,0.44,86.57,126.77,-1926.21,162.54,,,,,,,
3782678,1492543797737,179.43,0.5,86.62,125.92,1280.64,163.33,,,,,,,
3782677,1492543797685,-179.61,-0.34,86.69,124.63,-593.81,164.49,,,,,,,
3782676,1492543797636,179.8,0.17,86.78,123.11,1316.59,165.95,,,,,,,
3782675,1492543797585,179.97,0.02,86.89,121.28,1139.95,167.66,,,,,,,
3782674,1492543797536,179.96,0.03,87.01,119.2,-1265.14,169.62,,,,,,,
3782673,1492543797487,-179.8,-0.18,87.14,117,1314.03,171.75,,,,,,,
3782672,1492543797436,-179.64,-0.31,87.28,114.69,1297.24,174.01,,,,,,,
3782671,1492543797386,179.74,0.22,87.42,112.37,553.71,176.27,,,,,,,
3782670,1492543797335,179.99,0,87.56,110.05,1531.31,178.41,,,,,,,
3782669,1492543797286,179.87,0.11,87.69,107.85,1837.34,180.54,,,,,,,
3782668,1492543797235,179.8,0.17,87.8,105.83,521.55,182.5,,,,,,,
3782667,1492543797186,179.68,0.27,87.9,104,848.02,184.2,,,,,,,
3782666,1492543797137,179.76,0.21,87.98,102.42,-537.17,185.67,,,,,,,
3782665,1492543797085,-179.84,-0.14,88.04,101.26,306.88,186.77,,,,,,,
3782664,1492543797036,179.82,0.15,88.09,100.4,1892.82,187.5,,,,,,,
3782663,1492543796985,-179.64,-0.3,88.11,99.98,244.26,187.87,,,,,,,
3782662,1492543796936,-179.84,-0.13,88.12,99.91,-1187.13,187.87,,,,,,,
3782661,1492543796887,-179.38,-0.53,88.1,100.28,-1213.38,187.44,,,,,,,
3782660,1492543796836,179.53,0.4,88.06,101.07,1613.04,186.71,,,,,,,
3782659,1492543796786,179.71,0.25,87.99,102.17,-747.56,185.55,,,,,,,
3782658,1492543796735,179.97,0.02,87.92,103.64,113.83,184.08,,,,,,,
3782657,1492543796686,179.66,0.29,87.82,105.29,-556.27,182.31,,,,,,,
3782656,1492543796635,179.82,0.16,87.7,107.24,-1008.3,180.3,,,,,,,
3782655,1492543796586,179.46,0.46,87.59,109.31,-220.89,178.1,,,,,,,
3782654,1492543796536,179.24,0.66,87.46,111.57,1571.11,175.84,,,,,,,
3782653,1492543796485,179.93,0.06,87.32,113.83,-1252.99,173.52,,,,,,,
3782652,1492543796436,-179.94,-0.05,87.18,116.09,458.37,171.2,,,,,,,
3782651,1492543796385,-179.92,-0.07,87.05,118.23,1023.93,168.95,,,,,,,
3782650,1492543796336,179.78,0.2,86.93,120.18,1866.09,166.93,,,,,,,
3782649,1492543796285,-179.92,-0.07,86.82,121.95,1245.73,165.04,,,,,,,
3782648,1492543796235,-179.54,-0.41,86.74,123.41,-105.65,163.45,,,,,,,
3782647,1492543796186,-179.68,-0.28,86.67,124.63,177.49,162.23,,,,,,,
3782646,1492543796135,179.9,0.09,86.61,125.43,1719.48,161.32,,,,,,,
3782645,1492543796086,-180,0,86.59,125.85,-1456.36,160.71,,,,,,,
3782644,1492543796035,179.92,0.07,86.59,125.92,900.51,160.58,,,,,,,
3782643,1492543795986,-179.92,-0.07,86.61,125.49,-987.73,160.83,,,,,,,
3782642,1492543795936,179.95,0.04,86.66,124.76,1358.52,161.44,,,,,,,
3782641,1492543795885,179.72,0.24,86.72,123.6,-542.97,162.41,,,,,,,
3782640,1492543795836,179.56,0.39,86.81,122.19,541.38,163.76,,,,,,,
3782639,1492543795785,179.67,0.29,86.91,120.42,-1393.74,165.41,,,,,,,
3782638,1492543795736,-179.96,-0.04,87.03,118.47,1657.23,167.36,,,,,,,
3782637,1492543795685,179.63,0.32,87.15,116.27,-961.61,169.43,,,,,,,
3782636,1492543795635,179.85,0.13,87.29,114.01,798.34,171.63,,,,,,,
3782635,1492543795586,179.9,0.09,87.42,111.63,-672.79,173.89,,,,,,,
3782634,1492543795535,179.88,0.1,87.55,109.31,-1906.8,176.15,,,,,,,
3782633,1492543795486,179.9,0.09,87.68,107.06,-29.17,178.28,,,,,,,
3782632,1492543795435,179.72,0.24,87.8,104.98,-1999.27,180.3,,,,,,,
3782631,1492543795386,-179.6,-0.34,87.9,103.09,1669.01,182.13,,,,,,,
3782630,1492543795334,-179.76,-0.2,88,101.44,576.42,183.65,,,,,,,
3782629,1492543795285,-179.94,-0.05,88.07,100.1,459.23,184.94,,,,,,,
3782628,1492543795236,-179.91,-0.08,88.12,99.06,-563.17,185.79,,,,,,,
3782627,1492543795185,179.37,0.53,88.16,98.51,98.51,186.28,,,,,,,
3782626,1492543795136,-179.52,-0.41,88.16,98.33,194.82,186.46,,,,,,,
3782625,1492543795084,179.89,0.09,88.15,98.51,1684.39,186.22,,,,,,,
3782624,1492543795035,179.71,0.25,88.12,99.12,1750.18,185.61,,,,,,,
3782623,1492543794984,179.68,0.27,88.07,100.1,-261.11,184.57,,,,,,,
3782622,1492543794935,179.88,0.1,87.99,101.44,-1999.94,183.23,,,,,,,
3782621,1492543794886,-179.55,-0.39,87.91,103.03,-1439.33,181.52,,,,,,,
3782620,1492543794835,179.53,0.4,87.81,104.86,-1425.23,179.63,,,,,,,
3782619,1492543794785,179.88,0.1,87.69,106.93,941.71,177.49,,,,,,,
3782618,1492543794734,179.63,0.32,87.57,109.07,-51.15,175.23,,,,,,,
3782617,1492543794685,179.99,0,87.43,111.33,-204.35,172.85,,,,,,,
3782616,1492543794636,179.9,0.09,87.3,113.65,140.14,170.53,,,,,,,
3782615,1492543794585,-179.7,-0.26,87.17,115.78,-497.74,168.27,,,,,,,
3782614,1492543794536,-179.91,-0.08,87.04,117.86,1427.98,166.14,,,,,,,
3782613,1492543794484,-179.97,-0.03,86.93,119.69,-1252.08,164.18,,,,,,,
3782612,1492543794435,-179.38,-0.55,86.84,121.28,-350.4,162.54,,,,,,,
3782611,1492543794384,179.51,0.43,86.76,122.62,1173.4,161.13,,,,,,,
3782610,1492543794335,179.88,0.11,86.7,123.6,534.79,160.1,,,,,,,
3782609,1492543794286,-179.84,-0.14,86.66,124.15,1274.66,159.36,,,,,,,
3782608,1492543794235,179.59,0.36,86.65,124.33,-1978.7,159.06,,,,,,,
3782607,1492543794185,179.83,0.15,86.67,124.15,501.83,159.18,,,,,,,
3782606,1492543794134,179.78,0.2,86.7,123.47,-1727.17,159.67,,,,,,,
3782605,1492543794085,179.83,0.15,86.76,122.5,369.63,160.58,,,,,,,
3782604,1492543794034,179.84,0.14,86.84,121.15,74.71,161.8,,,,,,,
3782601,1492543793884,-179.83,-0.15,87.16,115.48,-1245.36,167.18,,,,,,,
3782600,1492543793835,-179.92,-0.07,87.3,113.22,1946.53,169.37,,,,,,,
3782599,1492543793784,179.93,0.06,87.43,110.84,-113.1,171.63,,,,,,,
3782598,1492543793735,-179.9,-0.09,87.57,108.52,1650.94,173.89,,,,,,,
3782597,1492543793684,-179.7,-0.26,87.7,106.2,1628.11,176.09,,,,,,,
3782596,1492543793634,-179.93,-0.06,87.83,104,-1541.63,178.16,,,,,,,
3782595,1492543793585,179.97,0.03,87.94,101.99,-1890.14,180.05,,,,,,,
3782594,1492543793534,179.42,0.5,88.04,100.22,-161.74,181.7,,,,,,,
3782593,1492543793485,179.62,0.33,88.12,98.82,35.83,183.04,,,,,,,
3782592,1492543793434,179.93,0.06,88.18,97.66,1024.72,184.02,,,,,,,
3782591,1492543793385,-179.83,-0.14,88.22,96.86,-75.81,184.69,,,,,,,
3782590,1492543793335,179.87,0.11,88.23,96.56,1571.04,184.94,,,,,,,
3782589,1492543793284,179.78,0.19,88.23,96.62,1516.48,184.88,,,,,,,
3782588,1492543793235,179.89,0.09,88.2,97.11,1367.31,184.33,,,,,,,
3782587,1492543793184,-179.87,-0.11,88.15,97.96,-1322.94,183.47,,,,,,,
3782586,1492543793135,-179.72,-0.24,88.08,99.18,1965.94,182.25,,,,,,,
3782585,1492543793084,179.57,0.37,88,100.65,-360.84,180.73,,,,,,,
3782584,1492543793034,179.83,0.14,87.9,102.42,-789,178.83,,,,,,,
3782583,1492543792985,179.85,0.13,87.79,104.43,1171.88,176.76,,,,,,,
3782582,1492543792934,179.64,0.31,87.66,106.57,-1878.23,174.5,,,,,,,
3782581,1492543792885,179.64,0.31,87.53,108.83,1912.05,172.18,,,,,,,
3782580,1492543792834,179.41,0.51,87.4,111.08,-153.02,169.8,,,,,,,
3782579,1492543792785,179.55,0.39,87.26,113.34,-1018.31,167.48,,,,,,,
3782578,1492543792733,179.72,0.24,87.13,115.48,-1590.76,165.28,,,,,,,
3782577,1492543792684,179.77,0.21,87.01,117.43,1928.41,163.27,,,,,,,
3782576,1492543792635,-179.83,-0.15,86.91,119.14,-1194.03,161.44,,,,,,,
3782575,1492543792584,179.92,0.07,86.83,120.61,704.28,159.91,,,,,,,
3782574,1492543792535,-179.83,-0.15,86.76,121.7,1235.47,158.69,,,,,,,
3782573,1492543792484,-179.82,-0.16,86.72,122.44,660.28,157.84,,,,,,,
3782572,1492543792434,-179.45,-0.49,86.71,122.74,1715.33,157.41,,,,,,,
3782571,1492543792383,179.86,0.12,86.71,122.62,-1678.77,157.35,,,,,,,
3782570,1492543792334,179.92,0.07,86.73,122.13,-1724.37,157.71,,,,,,,
3782569,1492543792285,-179.66,-0.3,86.79,121.28,569.03,158.39,,,,,,,
3782568,1492543792234,179.65,0.31,86.86,120,-119.2,159.48,,,,,,,
3782567,1492543792184,179.48,0.45,86.96,118.47,-763.43,160.95,,,,,,,
3782566,1492543792133,-179.76,-0.21,87.06,116.64,-1014.47,162.66,,,,,,,
3782565,1492543792084,-179.8,-0.17,87.18,114.62,1093.32,164.67,,,,,,,
3782564,1492543792035,179.36,0.56,87.31,112.37,-391.78,166.81,,,,,,,
3782563,1492543791984,179.81,0.16,87.44,110.05,-1422.85,169.07,,,,,,,
3782562,1492543791935,-179.74,-0.22,87.57,107.73,388.49,171.33,,,,,,,
3782561,1492543791883,-179.73,-0.24,87.7,105.35,-668.58,173.58,,,,,,,
3782560,1492543791834,179.71,0.25,87.83,103.09,-256.41,175.72,,,,,,,
3782559,1492543791783,179.91,0.08,87.94,101.01,1627.69,177.67,,,,,,,
3782558,1492543791734,-179.89,-0.09,88.05,99.18,989.87,179.44,,,,,,,
3782557,1492543791685,179.77,0.19,88.13,97.6,1552.98,180.91,,,,,,,
3782556,1492543791634,179.77,0.19,88.2,96.31,-152.1,182.07,,,,,,,
3782555,1492543791584,179.65,0.3,88.24,95.46,984.99,182.86,,,,,,,
3782554,1492543791533,-179.27,-0.62,88.28,94.91,-659.12,183.29,,,,,,,
3782553,1492543791484,-179.66,-0.29,88.28,94.85,1474.24,183.29,,,,,,,
3782552,1492543791433,-179.87,-0.11,88.26,95.21,95.15,182.92,,,,,,,
3782551,1492543791384,179.62,0.33,88.22,95.95,1623.11,182.19,,,,,,,
3782550,1492543791335,-179.96,-0.04,88.16,97.05,1643.55,181.09,,,,,,,
3782549,1492543791283,179.68,0.28,88.09,98.45,682.92,179.69,,,,,,,
3782548,1492543791234,179.64,0.31,87.99,100.1,-39.98,177.86,,,,,,,
3782547,1492543791183,179.59,0.35,87.88,102.05,-51.88,175.84,,,,,,,
3782546,1492543791134,179.56,0.38,87.76,104.19,-415.53,173.65,,,,,,,
3782545,1492543791083,179.81,0.16,87.63,106.45,-1715.03,171.33,,,,,,,
3782544,1492543791034,-179.97,-0.02,87.49,108.76,1451.29,168.95,,,,,,,
3782543,1492543790984,179.92,0.07,87.37,111.02,1287.78,166.63,,,,,,,
3782542,1492543790933,-179.94,-0.05,87.24,113.16,-1465.58,164.37,,,,,,,
3782541,1492543790884,179.61,0.34,87.12,115.17,-1394.84,162.29,,,,,,,
3782540,1492543790833,179.92,0.07,87.01,117,-1913.94,160.4,,,,,,,
3782539,1492543790784,-179.93,-0.06,86.92,118.59,417.85,158.75,,,,,,,
3782538,1492543790735,179.76,0.21,86.85,119.75,-659.48,157.41,,,,,,,
3782537,1492543790683,-179.62,-0.34,86.8,120.67,1105.77,156.43,,,,,,,
3782536,1492543790634,-179.77,-0.21,86.77,121.15,1939.76,155.82,,,,,,,
3782535,1492543790583,179.35,0.58,86.77,121.22,958.19,155.64,,,,,,,
3782534,1492543790534,179.9,0.09,86.77,120.85,-1303.04,155.82,,,,,,,
3782533,1492543790483,-179.95,-0.05,86.82,120.18,502.69,156.43,,,,,,,
3782532,1492543790433,-179.92,-0.07,86.89,119.08,19.59,157.35,,,,,,,
3782531,1492543790384,-179.75,-0.22,86.97,117.61,1141.85,158.69,,,,,,,
3782530,1492543790333,-179.44,-0.5,87.07,115.84,-1236.94,160.34,,,,,,,
3782529,1492543790284,179.83,0.15,87.18,113.83,-467.04,162.23,,,,,,,
3782528,1492543790233,179.76,0.22,87.31,111.69,1214.78,164.31,,,,,,,
3782527,1492543790184,-179.8,-0.17,87.44,109.37,570.5,166.56,,,,,,,
3782526,1492543790132,-179.72,-0.25,87.58,106.93,-795.78,168.82,,,,,,,
3782525,1492543790083,-179.92,-0.07,87.71,104.55,-300.48,171.14,,,,,,,
3782524,1492543790034,179.79,0.18,87.84,102.29,77.88,173.28,,,,,,,
3782523,1492543789983,-179.8,-0.18,87.96,100.1,1677.12,175.35,,,,,,,
3782522,1492543789934,-179.68,-0.28,88.07,98.08,-816.41,177.19,,,,,,,
3782521,1492543789883,179.66,0.29,88.17,96.44,1020.94,178.77,,,,,,,
3782520,1492543789833,-179.52,-0.41,88.24,95.03,1834.9,180.05,,,,,,,
3782519,1492543789784,179.93,0.06,88.29,93.99,-1496.7,180.97,,,,,,,
3782518,1492543789733,-179.87,-0.11,88.33,93.32,-966,181.52,,,,,,,
3782517,1492543789684,179.98,0.02,88.34,93.08,-1171.81,181.7,,,,,,,
3782516,1492543789633,179.97,0.02,88.33,93.26,-313.29,181.52,,,,,,,
3782515,1492543789584,-179.76,-0.21,88.3,93.87,-1186.95,180.91,,,,,,,
3782514,1492543789532,-179.54,-0.39,88.25,94.85,-313.72,179.99,,,,,,,
3782513,1492543789483,-179.91,-0.08,88.17,96.19,-1790.22,178.65,,,,,,,
3782512,1492543789434,-179.81,-0.16,88.09,97.78,-1914.98,177,,,,,,,
3782511,1492543789383,179.92,0.07,87.99,99.61,-968.02,175.05,,,,,,,
3782510,1492543789334,179.89,0.1,87.87,101.68,-1812.56,172.91,,,,,,,
3782509,1492543789282,-179.81,-0.16,87.75,103.88,-922.49,170.65,,,,,,,
3782508,1492543789233,179.93,0.06,87.62,106.2,756.16,168.27,,,,,,,
3782507,1492543789182,-179.93,-0.06,87.48,108.46,-1648.8,165.83,,,,,,,
3782506,1492543789133,179.92,0.07,87.35,110.72,1038.51,163.57,,,,,,,
3782505,1492543789084,179.47,0.47,87.24,112.79,-1320.8,161.38,,,,,,,
3782504,1492543789033,179.5,0.45,87.12,114.75,230.53,159.36,,,,,,,
3782503,1492543788983,179.95,0.05,87.02,116.39,327.39,157.59,,,,,,,
3782502,1492543788932,-179.93,-0.06,86.94,117.74,750.79,156.13,,,,,,,
3782501,1492543788883,179.7,0.26,86.88,118.71,-837.22,155.03,,,,,,,
3782500,1492543788832,-179.62,-0.34,86.85,119.38,516.78,154.3,,,,,,,
3782499,1492543788783,179.68,0.29,86.84,119.57,-397.71,153.93,,,,,,,
3782498,1492543788734,179.86,0.12,86.84,119.38,-641.05,153.99,,,,,,,
3782497,1492543788682,179.65,0.31,86.88,118.84,1398.62,154.42,,,,,,,
3782496,1492543788633,-179.99,-0.01,86.94,117.86,-1430.85,155.27,,,,,,,
3782495,1492543788582,179.74,0.24,87.02,116.52,-1585.39,156.49,,,,,,,
3782494,1492543788533,179.11,0.79,87.12,114.87,-824.46,158.02,,,,,,,
3782493,1492543788482,179.78,0.19,87.22,112.98,-1777.59,159.85,,,,,,,
3782492,1492543788433,-179.9,-0.09,87.33,110.84,-1164.55,161.87,,,,,,,
3782491,1492543788383,179.78,0.19,87.46,108.58,-1922.12,164.12,,,,,,,
3782490,1492543788332,179.66,0.3,87.59,106.2,-255.55,166.38,,,,,,,
3782489,1492543788283,-179.42,-0.51,87.73,103.82,-1841.49,168.7,,,,,,,
3782488,1492543788232,-179.74,-0.23,87.87,101.44,-325.13,170.96,,,,,,,
3782487,1492543788183,179.84,0.14,87.99,99.24,-2007.51,173.03,,,,,,,
3782486,1492543788134,179.87,0.11,88.11,97.17,-1192.2,174.99,,,,,,,
3782485,1492543788082,-179.69,-0.27,88.2,95.34,-223.94,176.7,,,,,,,
3782484,1492543788033,179.45,0.48,88.28,93.87,1689.82,178.1,,,,,,,
3782483,1492543787982,179.39,0.52,88.34,92.71,201.11,179.14,,,,,,,
3782482,1492543787933,179.97,0.03,88.37,91.86,-733.46,179.87,,,,,,,
3782481,1492543787882,179.96,0.04,88.39,91.49,-1293.09,180.24,,,,,,,
3782480,1492543787832,179.76,0.21,88.39,91.55,677.37,180.18,,,,,,,
3782479,1492543787783,179.65,0.3,88.37,91.98,-751.34,179.69,,,,,,,
3782478,1492543787732,-179.65,-0.3,88.33,92.83,-689.7,178.83,,,,,,,
3782477,1492543787683,-179.91,-0.08,88.26,94.06,-854.43,177.67,,,,,,,
3782476,1492543787632,-179.45,-0.47,88.19,95.58,1497.99,176.09,,,,,,,
3782475,1492543787583,-179.96,-0.03,88.09,97.41,15.56,174.26,,,,,,,
3782474,1492543787531,179.97,0.02,87.98,99.37,-361.69,172.18,,,,,,,
3782473,1492543787482,179.92,0.07,87.86,101.56,-737.79,169.86,,,,,,,
3782472,1492543787433,179.9,0.09,87.73,103.88,1895.87,167.54,,,,,,,
3782471,1492543787382,179.94,0.05,87.59,106.2,1430.54,165.16,,,,,,,
3782470,1492543787333,179.34,0.58,87.47,108.46,-285.58,162.78,,,,,,,
3782469,1492543787282,179.69,0.28,87.34,110.66,1365.66,160.52,,,,,,,
3782468,1492543787232,179.8,0.18,87.22,112.61,-91.37,158.45,,,,,,,
3782466,1492543787132,179.77,0.21,87.03,115.91,381.41,155.03,,,,,,,
3782465,1492543787083,179.4,0.53,86.96,117.07,37.35,153.75,,,,,,,
3782464,1492543787032,-179.88,-0.11,86.91,117.8,-1335.21,152.89,,,,,,,
3782463,1492543786983,179.64,0.32,86.89,118.23,910.95,152.34,,,,,,,
3782462,1492543786931,179.9,0.09,86.89,118.16,-676.09,152.22,,,,,,,
3782461,1492543786882,179.32,0.61,86.92,117.74,440.49,152.53,,,,,,,
3782460,1492543786833,-179.75,-0.22,86.95,116.88,-1999.08,153.26,,,,,,,
3782459,1492543786782,179.78,0.2,87.02,115.66,1406.74,154.36,,,,,,,
3782458,1492543786733,-179.98,-0.02,87.11,114.14,653.5,155.76,,,,,,,
3782457,1492543786682,179.89,0.1,87.21,112.3,1657.29,157.47,,,,,,,
3782456,1492543786632,-179.7,-0.26,87.33,110.23,-1727.23,159.48,,,,,,,
3782455,1492543786581,-179.77,-0.21,87.45,107.97,-887.33,161.68,,,,,,,
3782454,1492543786532,179.24,0.66,87.59,105.65,1075.62,163.88,,,,,,,
3782453,1492543786483,-179.83,-0.15,87.72,103.21,1680.42,166.26,,,,,,,
3782452,1492543786432,-179.68,-0.28,87.85,100.83,1581.97,168.52,,,,,,,
3782451,1492543786383,179.81,0.16,87.98,98.51,-1817.26,170.72,,,,,,,
3782450,1492543786331,179.49,0.44,88.09,96.37,496.58,172.79,,,,,,,
3782449,1492543786282,179.83,0.15,88.19,94.42,1785.46,174.62,,,,,,,
3782448,1492543786231,-179.98,-0.01,88.28,92.71,-201.66,176.21,,,,,,,
3782447,1492543786182,179.86,0.12,88.35,91.43,-1910.64,177.43,,,,,,,
3782446,1492543786133,-179.58,-0.36,88.4,90.45,-634.16,178.22,,,,,,,
3782445,1492543786081,179.96,0.04,88.43,89.9,-214.36,178.71,,,,,,,
3782444,1492543786032,179.34,0.57,88.44,89.78,-815.55,178.77,,,,,,,
3782443,1492543785981,-179.73,-0.24,88.42,90.09,-1813.48,178.47,,,,,,,
3782442,1492543785932,-179.55,-0.39,88.38,90.76,-100.77,177.8,,,,,,,
3782441,1492543785883,179.59,0.35,88.33,91.92,1863.04,176.76,,,,,,,
3782440,1492543785832,179.66,0.3,88.25,93.32,-992.07,175.29,,,,,,,
3782439,1492543785782,-179.62,-0.33,88.16,95.03,1797.97,173.52,,,,,,,
3782438,1492543785731,-179.84,-0.14,88.05,96.98,419.31,171.57,,,,,,,
3782437,1492543785682,179.69,0.27,87.94,99.12,562.81,169.31,,,,,,,
3782436,1492543785631,-179.44,-0.49,87.82,101.38,-1866.94,166.99,,,,,,,
3782435,1492543785582,179.91,0.08,87.68,103.7,-1409.67,164.55,,,,,,,
3782434,1492543785533,179.99,0.01,87.55,106.02,-1435.61,162.17,,,,,,,
3782433,1492543785481,179.84,0.14,87.42,108.28,1933.72,159.85,,,,,,,
3782432,1492543785432,-179.35,-0.58,87.31,110.35,-1035.83,157.65,,,,,,,
3782431,1492543785381,-179.97,-0.02,87.2,112.24,-938.35,155.7,,,,,,,
3782430,1492543785332,179.9,0.09,87.11,113.89,791.69,153.99,,,,,,,
3782429,1492543785281,-179.75,-0.22,87.03,115.17,649.84,152.59,,,,,,,
3782428,1492543785232,179.56,0.39,86.98,116.09,507.81,151.61,,,,,,,
3782427,1492543785182,179.91,0.08,86.94,116.58,-454.41,150.94,,,,,,,
3782426,1492543785131,179.55,0.4,86.94,116.7,-653.02,150.7,,,,,,,
3782425,1492543785082,-179.75,-0.22,86.96,116.46,539.55,150.82,,,,,,,
3782424,1492543785031,179.9,0.09,86.99,115.72,-1481.63,151.37,,,,,,,
3782423,1492543784982,179.45,0.49,87.06,114.62,-1078,152.34,,,,,,,
3782422,1492543784930,179.86,0.12,87.14,113.22,809.51,153.63,,,,,,,
3782421,1492543784881,179.95,0.04,87.23,111.45,-899.48,155.27,,,,,,,
3782420,1492543784832,179.84,0.14,87.34,109.5,1133.18,157.17,,,,,,,
3782419,1492543784781,179.81,0.17,87.46,107.3,-1739.62,159.3,,,,,,,
3782418,1492543784732,179.78,0.19,87.59,104.98,1737.92,161.56,,,,,,,
3782417,1492543784681,179.7,0.26,87.73,102.6,694.7,163.88,,,,,,,
3782416,1492543784631,-179.93,-0.06,87.86,100.16,1524.78,166.2,,,,,,,
3782415,1492543784582,-179.91,-0.08,87.98,97.78,-206.18,168.46,,,,,,,
3782414,1492543784531,179.85,0.13,88.1,95.58,-1091.25,170.59,,,,,,,
3782413,1492543784482,179.92,0.07,88.21,93.57,-418.27,172.49,,,,,,,
3782412,1492543784431,-179.98,-0.01,88.3,91.86,622.74,174.13,,,,,,,
3782411,1492543784382,179.5,0.44,88.38,90.39,1962.22,175.48,,,,,,,
3782410,1492543784330,179.67,0.28,88.44,89.29,-980.29,176.45,,,,,,,
3782409,1492543784281,-179.75,-0.21,88.48,88.62,441.22,177.06,,,,,,,
3782408,1492543784232,179.97,0.03,88.49,88.32,376.89,177.31,,,,,,,
3782407,1492543784181,179.78,0.19,88.49,88.44,-1817.93,177.12,,,,,,,
3782406,1492543784132,179.36,0.55,88.46,88.99,-1020.75,176.57,,,,,,,
3782405,1492543784081,-179.9,-0.08,88.4,89.97,-536.99,175.66,,,,,,,
3782404,1492543784031,-179.83,-0.15,88.33,91.31,-77.7,174.38,,,,,,,
3782403,1492543783980,179.6,0.35,88.25,92.96,370.12,172.73,,,,,,,
3782402,1492543783931,-179.24,-0.66,88.16,94.85,879.7,170.78,,,,,,,
3782401,1492543783882,179.9,0.09,88.04,96.92,-1862.55,168.58,,,,,,,
3782400,1492543783831,-179.86,-0.12,87.92,99.18,1182.43,166.32,,,,,,,
3782399,1492543783782,179.92,0.07,87.79,101.5,610.53,163.88,,,,,,,
3782398,1492543783730,-179.71,-0.25,87.66,103.82,1510.07,161.5,,,,,,,
3782397,1492543783681,179.65,0.31,87.53,106.08,-850.71,159.12,,,,,,,
3782396,1492543783632,-179.7,-0.26,87.4,108.28,793.33,156.86,,,,,,,
3782395,1492543783581,179.85,0.13,87.29,110.23,137.33,154.85,,,,,,,
3782394,1492543783532,-179.81,-0.17,87.19,111.94,434.94,153.02,,,,,,,
3782393,1492543783480,179.83,0.15,87.11,113.34,-1996.46,151.55,,,,,,,
3782392,1492543783431,179.93,0.06,87.05,114.38,-66.96,150.33,,,,,,,
3782391,1492543783380,-179.7,-0.26,87.01,115.11,1079.9,149.6,,,,,,,
3782390,1492543783331,179.86,0.13,86.99,115.36,-1563.35,149.17,,,,,,,
3782389,1492543783282,179.96,0.03,87,115.23,188.48,149.23,,,,,,,
3782388,1492543783231,-179.94,-0.06,87.03,114.62,1786.25,149.6,,,,,,,
3782387,1492543783181,-179.74,-0.24,87.09,113.65,-1287.96,150.45,,,,,,,
3782386,1492543783130,179.97,0.02,87.16,112.37,366.09,151.55,,,,,,,
3782385,1492543783081,179.9,0.09,87.25,110.72,1864.2,153.08,,,,,,,
3782384,1492543783030,179.97,0.02,87.36,108.76,-371.34,154.91,,,,,,,
3782383,1492543782981,179.73,0.24,87.48,106.63,-586.24,156.98,,,,,,,
3782382,1492543782932,179.59,0.36,87.61,104.37,574.77,159.18,,,,,,,
3782381,1492543782880,179.89,0.1,87.73,101.93,-1877.5,161.5,,,,,,,
3782380,1492543782831,179.62,0.33,87.86,99.49,-339.66,163.88,,,,,,,
3782379,1492543782780,-179.91,-0.08,87.99,97.11,-1734.86,166.2,,,,,,,
3782378,1492543782731,-179.83,-0.15,88.12,94.85,556.88,168.33,,,,,,,
3782377,1492543782680,179.73,0.23,88.23,92.71,-808.53,170.35,,,,,,,
3782376,1492543782631,-179.68,-0.28,88.33,90.82,-626.77,172.12,,,,,,,
3782375,1492543782581,179.87,0.11,88.42,89.29,885.07,173.58,,,,,,,
3782374,1492543782530,-179.91,-0.08,88.48,88.07,180.36,174.74,,,,,,,
3782373,1492543782481,179.69,0.27,88.52,87.16,-654.79,175.48,,,,,,,
3782372,1492543782430,-179.33,-0.58,88.55,86.73,1704.83,175.9,,,,,,,
3782371,1492543782381,-179.75,-0.22,88.54,86.67,-850.16,175.9,,,,,,,
3782370,1492543782332,-179.9,-0.09,88.52,87.1,-1372.01,175.48,,,,,,,
3782369,1492543782280,-179.93,-0.06,88.48,87.95,-1738.04,174.68,,,,,,,
3782368,1492543782231,179.56,0.38,88.42,89.17,671.26,173.52,,,,,,,
3782367,1492543782180,179.29,0.62,88.34,90.7,88.07,172,,,,,,,
3782366,1492543782131,-179.79,-0.19,88.24,92.47,1503.23,170.17,,,,,,,
3782365,1492543782080,179.59,0.36,88.14,94.48,1430.3,168.09,,,,,,,
3782364,1492543782031,-179.83,-0.15,88.02,96.68,-1920.72,165.83,,,,,,,
3782363,1492543781981,179.69,0.28,87.89,99,-1246.64,163.45,,,,,,,
3782362,1492543781930,179.79,0.18,87.76,101.32,-395.32,161.01,,,,,,,
3782361,1492543781881,-179.98,-0.01,87.63,103.64,970.95,158.63,,,,,,,
3782360,1492543781830,-179.81,-0.17,87.5,105.83,-1724.73,156.31,,,,,,,
3782359,1492543781781,179.68,0.29,87.38,107.91,1791.69,154.17,,,,,,,
3782358,1492543781729,179.89,0.1,87.27,109.68,-54.57,152.28,,,,,,,
3782357,1492543781680,-179.5,-0.45,87.18,111.27,-1067.75,150.63,,,,,,,
3782356,1492543781631,179.79,0.19,87.11,112.49,-1127.2,149.35,,,,,,,
3782355,1492543781580,-179.95,-0.05,87.06,113.34,1015.56,148.38,,,,,,,
3782354,1492543781531,179.92,0.07,87.04,113.77,-1775.27,147.83,,,,,,,
3782353,1492543781480,179.58,0.38,87.04,113.77,-1352.42,147.71,,,,,,,
3782352,1492543781430,-179.39,-0.55,87.07,113.34,-1741.15,147.95,,,,,,,
3782351,1492543781379,179.62,0.34,87.11,112.55,1401.86,148.62,,,,,,,
3782350,1492543781330,179.69,0.28,87.18,111.33,-602.23,149.66,,,,,,,
3782349,1492543781281,179.87,0.12,87.26,109.8,-32.1,151.06,,,,,,,
3782348,1492543781230,179.38,0.56,87.37,108.03,1812.87,152.77,,,,,,,
3782347,1492543781181,179.85,0.13,87.48,105.96,1387.21,154.79,,,,,,,
3782346,1492543781129,179.82,0.16,87.6,103.7,1843.75,156.92,,,,,,,
3782345,1492543781080,179.7,0.26,87.73,101.32,1238.28,159.24,,,,,,,
3782344,1492543781031,179.73,0.24,87.86,98.88,1467.59,161.62,,,,,,,
3782343,1492543780980,179.83,0.15,87.99,96.44,-2000.18,163.94,,,,,,,
3782342,1492543780931,179.8,0.17,88.11,94.12,672.36,166.2,,,,,,,
3782341,1492543780880,179.69,0.27,88.23,91.92,703.98,168.33,,,,,,,
3782340,1492543780830,-179.8,-0.17,88.33,89.97,167.18,170.17,,,,,,,
3782339,1492543780779,-179.46,-0.47,88.42,88.26,686.65,171.75,,,,,,,
3782338,1492543780730,-180,0,88.49,86.85,-456.12,173.03,,,,,,,
3782337,1492543780681,179.75,0.22,88.54,85.88,611.82,173.95,,,,,,,
3782336,1492543780630,-179.87,-0.11,88.57,85.27,1747.62,174.44,,,,,,,
3782335,1492543780581,179.8,0.17,88.58,85.08,1557.01,174.62,,,,,,,
3782334,1492543780529,179.64,0.31,88.57,85.33,-1685.36,174.32,,,,,,,
3782333,1492543780480,179.62,0.33,88.53,86,1463.32,173.71,,,,,,,
3782332,1492543780429,179.96,0.04,88.48,87.1,1127.08,172.67,,,,,,,
3782331,1492543780380,179.94,0.05,88.41,88.5,-1998.84,171.26,,,,,,,
3782330,1492543780331,179.75,0.22,88.31,90.21,-1034.48,169.56,,,,,,,
3782329,1492543780279,-179.86,-0.12,88.21,92.16,-1656.19,167.48,,,,,,,
3782328,1492543780230,-179.55,-0.39,88.1,94.3,-533.02,165.28,,,,,,,
3782327,1492543780179,-179.77,-0.2,87.98,96.68,94.85,162.84,,,,,,,
3782326,1492543780130,-179.78,-0.2,87.85,99,-655.52,160.4,,,,,,,
3782325,1492543780079,179.72,0.25,87.72,101.38,-1937.93,157.96,,,,,,,
3782324,1492543780030,179.65,0.31,87.58,103.7,529.05,155.58,,,,,,,
3782323,1492543779980,178.96,0.93,87.48,105.77,-132.08,153.38,,,,,,,
3782322,1492543779929,179.43,0.51,87.35,107.73,-1741.82,151.37,,,,,,,
3782321,1492543779880,179.61,0.35,87.25,109.37,-424.01,149.66,,,,,,,
3782320,1492543779829,179.82,0.16,87.17,110.78,144.71,148.19,,,,,,,
3782319,1492543779780,-179.84,-0.14,87.13,111.69,-590.15,147.09,,,,,,,
3782318,1492543779731,-179.75,-0.22,87.09,112.3,484.19,146.42,,,,,,,
3782317,1492543779679,179.75,0.23,87.08,112.49,423.83,146.12,,,,,,,
3782316,1492543779630,179.65,0.31,87.1,112.18,-2003.97,146.24,,,,,,,
3782315,1492543779579,179.66,0.31,87.13,111.51,-1952.21,146.79,,,,,,,
3782314,1492543779530,179.75,0.22,87.19,110.47,409.36,147.71,,,,,,,
3782313,1492543779479,179.92,0.07,87.27,109.01,-1657.9,148.99,,,,,,,
3782312,1492543779430,-179.96,-0.04,87.36,107.24,-911.68,150.57,,,,,,,
3782311,1492543779380,179.76,0.21,87.47,105.29,32.84,152.53,,,,,,,
3782310,1492543779329,-179.22,-0.69,87.6,103.03,-1545.78,154.66,,,,,,,
3782309,1492543779280,179.82,0.16,87.72,100.65,-422.06,156.92,,,,,,,
3782308,1492543779229,179.74,0.23,87.86,98.21,-315.67,159.24,,,,,,,
3782307,1492543779180,-179.98,-0.01,87.99,95.76,1563.78,161.62,,,,,,,
3782306,1492543779128,-179.98,-0.02,88.12,93.38,758.42,163.94,,,,,,,
3782305,1492543779079,179.57,0.38,88.24,91.13,1300.54,166.08,,,,,,,
3782304,1492543779030,-179.28,-0.63,88.35,89.05,-1998.17,168.03,,,,,,,
3782303,1492543778979,-179.83,-0.15,88.44,87.22,-609.8,169.74,,,,,,,
3782302,1492543778930,179.96,0.04,88.52,85.75,1414.67,171.14,,,,,,,
3782301,1492543778879,-179.86,-0.12,88.58,84.59,1783.63,172.18,,,,,,,
3782300,1492543778829,179.54,0.4,88.62,83.86,454.65,172.85,,,,,,,
3782299,1492543778780,179.62,0.33,88.63,83.5,-626.83,173.16,,,,,,,
3782298,1492543778729,179.8,0.17,88.62,83.62,301.94,173.1,,,,,,,
3782297,1492543778680,-179.7,-0.26,88.6,84.11,-1779.42,172.55,,,,,,,
3782296,1492543778629,-179.57,-0.37,88.55,85.08,365.3,171.63,,,,,,,
3782295,1492543778580,179.8,0.17,88.48,86.36,-403.26,170.41,,,,,,,
3782294,1492543778528,179.95,0.04,88.4,88.01,-1265.14,168.82,,,,,,,
3782293,1492543778479,-179.93,-0.06,88.3,89.9,1060.67,166.87,,,,,,,
3782292,1492543778430,179.84,0.14,88.19,91.98,1621.83,164.67,,,,,,,
3782291,1492543778379,179.42,0.51,88.08,94.24,1300.9,162.35,,,,,,,
3782290,1492543778330,-179.66,-0.3,87.95,96.56,-1188.96,159.91,,,,,,,
3782289,1492543778279,-179.75,-0.22,87.82,98.94,-1570.74,157.47,,,,,,,
3782288,1492543778229,179.75,0.22,87.68,101.26,476.38,155.09,,,,,,,
3782287,1492543778178,-179.82,-0.16,87.56,103.45,1624.33,152.77,,,,,,,
3782286,1492543778129,179.8,0.18,87.45,105.47,-1183.65,150.63,,,,,,,
3782285,1492543778080,179.8,0.18,87.35,107.24,-937.38,148.8,,,,,,,
3782284,1492543778029,179.81,0.17,87.26,108.76,613.59,147.22,,,,,,,
3782283,1492543777980,179.58,0.38,87.2,109.86,-1103.39,145.94,,,,,,,
3782282,1492543777928,-179.99,-0.01,87.15,110.66,867.31,145.08,,,,,,,
3782281,1492543777879,179.82,0.16,87.13,110.96,1729.25,144.65,,,,,,,
3782280,1492543777828,-179.94,-0.05,87.14,110.84,-863.1,144.59,,,,,,,
3782279,1492543777779,179.71,0.27,87.16,110.35,820.56,144.96,,,,,,,
3782278,1492543777730,-179.97,-0.02,87.21,109.44,20.87,145.75,,,,,,,
3782277,1492543777679,179.83,0.15,87.29,108.09,-1597.9,146.91,,,,,,,
3782276,1492543777629,179.95,0.05,87.37,106.45,-794.31,148.38,,,,,,,
3782275,1492543777578,-179.94,-0.06,87.48,104.49,-236.33,150.21,,,,,,,
3782274,1492543777529,179.39,0.55,87.59,102.36,-52.8,152.28,,,,,,,
3782273,1492543777480,-179.74,-0.23,87.72,100.1,223.02,154.54,,,,,,,
3782272,1492543777429,179.74,0.23,87.85,97.66,487.55,156.86,,,,,,,
3782271,1492543777380,179.58,0.37,87.98,95.15,-1959.23,159.24,,,,,,,
3782270,1492543777328,179.47,0.47,88.11,92.71,-1345.83,161.56,,,,,,,
3782269,1492543777279,179.95,0.04,88.23,90.39,1144.23,163.82,,,,,,,
3782268,1492543777228,179.57,0.38,88.35,88.2,-1564.45,165.83,,,,,,,
3782267,1492543777179,179.82,0.16,88.44,86.24,-88.81,167.66,,,,,,,
3782266,1492543777130,-180,0,88.52,84.66,457.4,169.25,,,,,,,
3782265,1492543777078,179.74,0.22,88.59,83.31,-1063.11,170.41,,,,,,,
3782264,1492543777029,179.78,0.19,88.64,82.4,-1477.97,171.2,,,,,,,
3782263,1492543776978,179.86,0.12,88.66,81.91,260.44,171.69,,,,,,,
3782262,1492543776929,-179.92,-0.07,88.67,81.79,-90.09,171.69,,,,,,,
3782261,1492543776878,-179.54,-0.4,88.64,82.15,-214.72,171.33,,,,,,,
3782260,1492543776829,179.84,0.14,88.6,82.95,-187.01,170.59,,,,,,,
3782259,1492543776779,179.74,0.23,88.55,84.17,1933.65,169.43,,,,,,,
3782258,1492543776728,-179.8,-0.18,88.47,85.69,-1538.45,167.97,,,,,,,
3782257,1492543776679,179.37,0.56,88.38,87.52,1734.01,166.14,,,,,,,
3782256,1492543776628,-179.91,-0.08,88.27,89.54,-956.91,164,,,,,,,
3782255,1492543776579,179.73,0.24,88.16,91.8,276.31,161.74,,,,,,,
3782254,1492543776528,-179.87,-0.11,88.03,94.06,-78.37,159.3,,,,,,,
3782253,1492543776478,179.82,0.16,87.9,96.5,1444.82,156.86,,,,,,,
3782252,1492543776429,179.62,0.34,87.77,98.88,-1608.76,154.42,,,,,,,
3782251,1492543776378,179.63,0.33,87.64,101.2,114.69,152.04,,,,,,,
3782250,1492543776329,-179.86,-0.13,87.52,103.27,-1513.92,149.84,,,,,,,
3782249,1492543776278,179.63,0.33,87.41,105.16,-759.83,147.89,,,,,,,
3782248,1492543776229,179.96,0.03,87.31,106.81,1664.06,146.18,,,,,,,
3782247,1492543776179,179.97,0.03,87.24,108.09,453.37,144.78,,,,,,,
3782246,1492543776128,179.96,0.04,87.19,108.95,-265.2,143.74,,,,,,,
3782245,1492543776079,-179.65,-0.31,87.17,109.5,1434.75,143.13,,,,,,,
3782244,1492543776028,-179.61,-0.35,87.17,109.5,-76.78,142.94,,,,,,,
3782243,1492543775979,-179.74,-0.24,87.19,109.19,426.15,143.13,,,,,,,
3782242,1492543775927,-179.71,-0.27,87.23,108.4,12.94,143.74,,,,,,,
3782241,1492543775878,179.49,0.46,87.3,107.18,1344.18,144.71,,,,,,,
3782240,1492543775829,-179.99,-0.01,87.38,105.65,411.56,146.12,,,,,,,
3782239,1492543775778,-179.84,-0.14,87.48,103.76,-34.55,147.83,,,,,,,
3782238,1492543775729,-179.75,-0.23,87.6,101.68,-1169.31,149.84,,,,,,,
3782237,1492543775678,179.55,0.4,87.72,99.43,927.92,152.04,,,,,,,
3782236,1492543775628,179.78,0.2,87.85,96.98,-588.75,154.36,,,,,,,
3782235,1492543775577,-179.87,-0.11,87.98,94.54,1805.73,156.74,,,,,,,
3782234,1492543775528,-179.75,-0.22,88.11,92.04,-748.72,159.12,,,,,,,
3782233,1492543775479,-179.9,-0.09,88.23,89.66,1843.02,161.38,,,,,,,
3782232,1492543775428,179.28,0.63,88.36,87.4,1872.74,163.57,,,,,,,
3782231,1492543775379,-179.47,-0.47,88.45,85.33,-527.28,165.47,,,,,,,
3782230,1492543775327,179.85,0.13,88.54,83.56,-598.69,167.18,,,,,,,
3782229,1492543775278,179.3,0.61,88.62,82.15,1257.87,168.52,,,,,,,
3782228,1492543775229,-179.94,-0.05,88.66,81.05,1236.57,169.49,,,,,,,
3782227,1492543775178,-179.65,-0.31,88.69,80.32,-132.63,170.1,,,,,,,
3782226,1492543775129,179.72,0.25,88.7,80.08,-204.65,170.29,,,,,,,
3782225,1492543775078,-179.86,-0.12,88.69,80.32,700.99,170.04,,,,,,,
3782224,1492543775028,179.9,0.09,88.66,80.93,-858.7,169.43,,,,,,,
3782223,1492543774977,179.91,0.08,88.61,81.97,-820.43,168.4,,,,,,,
3782222,1492543774928,179.74,0.23,88.54,83.44,956.12,167.11,,,,,,,
3782221,1492543774879,-179.95,-0.05,88.45,85.14,-1800.96,165.41,,,,,,,
3782220,1492543774828,-179.76,-0.21,88.35,87.1,-854.37,163.33,,,,,,,
3782219,1492543774779,179.8,0.18,88.24,89.29,1975.4,161.13,,,,,,,
3782218,1492543774727,179.97,0.02,88.12,91.61,-1862.55,158.69,,,,,,,
3782217,1492543774678,-179.97,-0.02,87.99,94.06,475.28,156.19,,,,,,,
3782216,1492543774627,-179.88,-0.11,87.86,96.44,931.76,153.75,,,,,,,
3782215,1492543774578,-179.71,-0.26,87.73,98.75,11.35,151.31,,,,,,,
3782214,1492543774529,179.99,0.01,87.61,100.95,537.72,149.05,,,,,,,
3782213,1492543774477,179.6,0.36,87.5,102.91,-1154.97,146.91,,,,,,,
3782212,1492543774428,-179.78,-0.2,87.4,104.68,3.48,145.14,,,,,,,
3782211,1492543774377,179.97,0.02,87.32,106.02,-872.44,143.62,,,,,,,
3782210,1492543774328,-179.93,-0.07,87.27,107.06,-1508.36,142.46,,,,,,,
3782209,1492543774277,-179.3,-0.63,87.24,107.73,274.54,141.72,,,,,,,
3782208,1492543774228,-179.99,-0.01,87.23,107.91,-1889.1,141.36,,,,,,,
3782207,1492543774178,179.7,0.28,87.24,107.73,563.29,141.42,,,,,,,
3782206,1492543774127,179.76,0.22,87.27,107.06,-947.69,141.85,,,,,,,
3782205,1492543774078,179.9,0.09,87.33,106.02,817.14,142.76,,,,,,,
3782204,1492543774027,179.53,0.43,87.41,104.61,439.88,143.98,,,,,,,
3782203,1492543773978,179.99,0,87.49,102.84,-606.57,145.51,,,,,,,
3782202,1492543773929,179.98,0.02,87.6,100.89,540.34,147.46,,,,,,,
3782201,1492543773877,179.67,0.29,87.73,98.69,681.46,149.54,,,,,,,
3782200,1492543773828,179.98,0.02,87.85,96.31,1673.71,151.79,,,,,,,
3782199,1492543773777,-179.95,-0.04,87.99,93.87,279.11,154.17,,,,,,,
3782198,1492543773728,179.9,0.09,88.12,91.37,294.49,156.62,,,,,,,
3782197,1492543773677,179.31,0.61,88.25,88.87,-910.1,159,,,,,,,
3782196,1492543773628,179.93,0.06,88.36,86.55,1295.23,161.19,,,,,,,
3782195,1492543773578,179.59,0.36,88.47,84.41,768.68,163.27,,,,,,,
3782194,1492543773527,179.97,0.02,88.56,82.52,1259.22,165.04,,,,,,,
3782193,1492543773478,-179.86,-0.12,88.64,80.93,736.82,166.5,,,,,,,
3782192,1492543773427,-179.93,-0.06,88.7,79.71,1169.8,167.6,,,,,,,
3782191,1492543773378,179.7,0.26,88.73,78.86,1606.93,168.33,,,,,,,
3782190,1492543773327,179.86,0.12,88.75,78.43,1888.37,168.7,,,,,,,
3782189,1492543773277,-179.64,-0.31,88.75,78.43,-259.22,168.58,,,,,,,
3782188,1492543773228,179.39,0.54,88.73,78.98,13.43,168.15,,,,,,,
3782187,1492543773177,-179.83,-0.15,88.68,79.9,442.69,167.24,,,,,,,
3782186,1492543773128,179.98,0.02,88.61,81.18,-1134.64,166.02,,,,,,,
3782185,1492543773077,-179.92,-0.07,88.53,82.82,1177.19,164.43,,,,,,,
3782184,1492543773028,179.78,0.2,88.43,84.72,-1879.52,162.54,,,,,,,
3782183,1492543772976,-179.77,-0.2,88.33,86.79,-393.01,160.34,,,,,,,
3782182,1492543772927,179.76,0.22,88.21,89.11,-2011.66,157.96,,,,,,,
3782181,1492543772878,179.84,0.14,88.08,91.49,-1755.74,155.46,,,,,,,
3782180,1492543772827,-179.91,-0.08,87.95,93.93,1447.45,152.95,,,,,,,
3782179,1492543772778,-179.51,-0.44,87.82,96.31,36.38,150.51,,,,,,,
3782178,1492543772726,-179.9,-0.09,87.7,98.57,614.87,148.19,,,,,,,
3782177,1492543772677,-179.67,-0.3,87.58,100.65,1487.37,146,,,,,,,
3782176,1492543772628,-179.75,-0.22,87.48,102.54,223.02,144.04,,,,,,,
3782175,1492543772577,-179.53,-0.43,87.4,104.06,1408.81,142.4,,,,,,,
3782174,1492543772528,179.7,0.28,87.33,105.29,-1504.27,141.11,,,,,,,
3782173,1492543772477,-179.91,-0.08,87.29,106.14,741.52,140.14,,,,,,,
3782172,1492543772427,-179.56,-0.4,87.27,106.51,509.7,139.65,,,,,,,
3782171,1492543772376,-179.74,-0.24,87.28,106.45,660.71,139.53,,,,,,,
3782170,1492543772327,-179.88,-0.11,87.3,105.96,1067.14,139.83,,,,,,,
3782169,1492543772278,179.54,0.42,87.35,105.04,-1773.74,140.56,,,,,,,
3782168,1492543772227,179.67,0.3,87.42,103.7,-181.58,141.72,,,,,,,
3782167,1492543772178,179.64,0.33,87.5,102.11,256.29,143.19,,,,,,,
3782166,1492543772126,-179.75,-0.23,87.6,100.16,-1724.67,144.96,,,,,,,
3782165,1492543772077,179.64,0.33,87.72,98.02,393.19,147.03,,,,,,,
3782164,1492543772026,179.91,0.08,87.85,95.64,1483.22,149.29,,,,,,,
3782163,1492543771977,179.86,0.13,87.97,93.14,-1122.99,151.73,,,,,,,
3782162,1492543771928,179.81,0.17,88.11,90.64,1479.13,154.17,,,,,,,
3782161,1492543771877,179.88,0.11,88.23,88.13,1895.63,156.56,,,,,,,
3782160,1492543771827,179.44,0.5,88.36,85.69,-83.01,158.87,,,,,,,
3782159,1492543771776,179.95,0.04,88.47,83.5,1118.59,161.01,,,,,,,
3782158,1492543771727,179.32,0.6,88.57,81.48,-1812.19,162.84,,,,,,,
3782157,1492543771678,179.94,0.05,88.65,79.77,-488.95,164.49,,,,,,,
3782156,1492543771627,-179.83,-0.15,88.71,78.43,896.79,165.71,,,,,,,
3782155,1492543771578,179.65,0.3,88.76,77.45,381.84,166.63,,,,,,,
3782154,1492543771526,179.59,0.36,88.79,76.84,-844.06,167.11,,,,,,,
3782153,1492543771477,179.77,0.2,88.79,76.72,1721.07,167.18,,,,,,,
3782152,1492543771426,-179.97,-0.03,88.78,77.03,-573,166.87,,,,,,,
3782151,1492543771377,179.99,0,88.74,77.82,385.01,166.14,,,,,,,
3782150,1492543771328,-179.84,-0.14,88.68,78.98,-1152.95,165.04,,,,,,,
3782149,1492543771276,-179.88,-0.11,88.61,80.57,530.27,163.57,,,,,,,
3782148,1492543771227,-179.64,-0.31,88.52,82.4,179.57,161.74,,,,,,,
3782147,1492543771176,179.84,0.14,88.42,84.41,-1408.2,159.67,,,,,,,
3782146,1492543771127,-179.89,-0.1,88.3,86.67,644.65,157.35,,,,,,,
3782145,1492543771076,179.97,0.03,88.18,89.05,1547.06,154.85,,,,,,,
3782144,1492543771027,179.94,0.05,88.04,91.49,1342.16,152.34,,,,,,,
3782143,1492543770977,-179.93,-0.07,87.92,93.87,-429.08,149.84,,,,,,,
3782142,1492543770926,179.96,0.03,87.79,96.25,293.76,147.4,,,,,,,
3782141,1492543770877,179.75,0.22,87.67,98.39,-1986.08,145.14,,,,,,,
3782140,1492543770826,179.78,0.2,87.57,100.34,312.99,143.13,,,,,,,
3782139,1492543770777,179.88,0.11,87.47,101.99,-1966.49,141.36,,,,,,,
3782138,1492543770726,179.94,0.06,87.4,103.33,-1926.33,139.95,,,,,,,
3782137,1492543770676,179.75,0.23,87.34,104.31,888.79,138.85,,,,,,,
3782136,1492543770627,-179.95,-0.04,87.31,104.8,-793.52,138.18,,,,,,,
3782135,1492543770576,-179.89,-0.1,87.31,104.92,-1747.68,137.94,,,,,,,
3782134,1492543770527,-179.92,-0.08,87.33,104.61,1086.67,138.06,,,,,,,
3782133,1492543770476,-179.89,-0.1,87.37,103.88,451.17,138.61,,,,,,,
3782132,1492543770427,-179.85,-0.14,87.43,102.72,1249.88,139.59,,,,,,,
3782131,1492543770375,179.97,0.02,87.51,101.2,1088.38,140.93,,,,,,,
3782130,1492543770326,179.9,0.09,87.61,99.3,-218.63,142.64,,,,,,,
3782129,1492543770277,-179.95,-0.04,87.73,97.23,-1704.9,144.59,,,,,,,
3782128,1492543770226,179.45,0.5,87.85,94.91,-1081.36,146.85,,,,,,,
3782127,1492543770177,-179.77,-0.21,87.97,92.47,-1271.67,149.17,,,,,,,
3782126,1492543770125,-179.83,-0.15,88.1,89.97,-1050.42,151.61,,,,,,,
3782125,1492543770076,179.79,0.19,88.24,87.46,1845.76,154.05,,,,,,,
3782124,1492543770027,-179.59,-0.36,88.36,85.02,1334.47,156.43,,,,,,,
3782123,1492543769976,-179.76,-0.21,88.47,82.7,-1860.05,158.63,,,,,,,
3782122,1492543769927,179.73,0.24,88.58,80.57,-592.9,160.64,,,,,,,
3782121,1492543769876,179.68,0.29,88.67,78.74,-267.88,162.35,,,,,,,
3782120,1492543769826,179.85,0.13,88.74,77.27,1718.63,163.76,,,,,,,
3782119,1492543769775,179.88,0.1,88.8,76.11,-1236.69,164.86,,,,,,,
3782118,1492543769726,-179.98,-0.02,88.83,75.38,-1747.92,165.47,,,,,,,
3782117,1492543769677,-179.89,-0.1,88.85,75.07,-1403.26,165.71,,,,,,,
3782116,1492543769626,-179.75,-0.22,88.84,75.26,358.4,165.53,,,,,,,
3782115,1492543769577,-179.79,-0.19,88.82,75.81,-307.56,164.98,,,,,,,
3782114,1492543769525,179.56,0.39,88.77,76.84,-1273.44,164,,,,,,,
3782113,1492543769476,-179.44,-0.5,88.7,78.31,81.85,162.66,,,,,,,
3782112,1492543769425,179.8,0.18,88.62,80.02,-341.86,161.01,,,,,,,
3782111,1492543769376,-179.77,-0.2,88.52,82.03,1282.96,159,,,,,,,
3782110,1492543769327,179.86,0.13,88.41,84.17,-59.51,156.74,,,,,,,
3782109,1492543769276,179.84,0.14,88.28,86.55,242.25,154.3,,,,,,,
3782108,1492543769226,179.74,0.24,88.16,88.93,-773.68,151.79,,,,,,,
3782107,1492543769175,179.67,0.3,88.02,91.37,-1009.95,149.29,,,,,,,
3782106,1492543769126,179.7,0.27,87.9,93.75,-1940.06,146.79,,,,,,,
3782105,1492543769077,179.44,0.51,87.78,96.01,1487.12,144.41,,,,,,,
3782104,1492543769026,179.95,0.04,87.66,98.08,1317.69,142.27,,,,,,,
3782103,1492543768977,179.61,0.36,87.56,99.85,-235.11,140.38,,,,,,,
3782102,1492543768925,179.99,0,87.48,101.38,1578.31,138.79,,,,,,,
3782101,1492543768876,179.81,0.17,87.42,102.48,-1346.01,137.57,,,,,,,
3782100,1492543768825,179.84,0.15,87.38,103.21,544.01,136.78,,,,,,,
3782099,1492543768776,-179.85,-0.14,87.36,103.45,-26.73,136.29,,,,,,,
3782098,1492543768727,-179.69,-0.29,87.37,103.33,273.68,136.29,,,,,,,
3782097,1492543768676,179.72,0.26,87.4,102.72,-1511.96,136.72,,,,,,,
3782096,1492543768626,-179.84,-0.14,87.46,101.68,-1407.17,137.51,,,,,,,
3782095,1492543768575,-179.93,-0.06,87.54,100.28,-1633.3,138.73,,,,,,,
3782094,1492543768526,179.63,0.33,87.63,98.57,1523.25,140.32,,,,,,,
3782093,1492543768475,179.65,0.32,87.73,96.5,-207.09,142.21,,,,,,,
3782092,1492543768426,179.63,0.33,87.85,94.3,894.04,144.35,,,,,,,
3782091,1492543768376,-179.47,-0.48,87.98,91.86,-976.75,146.67,,,,,,,
3782090,1492543768325,179.94,0.06,88.1,89.36,520.57,149.11,,,,,,,
3782089,1492543768276,179.46,0.48,88.23,86.79,1743.16,151.55,,,,,,,
3782088,1492543768225,179.93,0.06,88.35,84.29,589.66,153.99,,,,,,,
3782087,1492543768176,-179.75,-0.22,88.47,81.85,-183.53,156.31,,,,,,,
3782086,1492543768125,179.62,0.33,88.58,79.65,-1886.96,158.39,,,,,,,
3782085,1492543768075,179.29,0.63,88.69,77.7,-1438.66,160.22,,,,,,,
3782084,1492543768026,-179.66,-0.3,88.76,76.05,1314.82,161.8,,,,,,,
3782083,1492543767975,179.74,0.23,88.83,74.77,1497.62,162.96,,,,,,,
3782082,1492543767926,-179.67,-0.29,88.87,73.85,-1828.25,163.76,,,,,,,
3782081,1492543767875,179.94,0.06,88.89,73.43,468.63,164.18,,,,,,,
3782080,1492543767826,179.73,0.23,88.89,73.43,61.28,164.12,,,,,,,
3782079,1492543767776,179.63,0.33,88.87,73.85,101.14,163.7,,,,,,,
3782078,1492543767725,-179.77,-0.21,88.83,74.71,-1772.09,162.84,,,,,,,
3782077,1492543767676,179.86,0.12,88.77,75.99,312.81,161.68,,,,,,,
3782076,1492543767625,-179.59,-0.36,88.69,77.64,1306.76,160.1,,,,,,,
3782075,1492543767576,179.58,0.38,88.6,79.53,-1393.86,158.2,,,,,,,
3782074,1492543767525,-179.86,-0.12,88.49,81.67,-505.92,156.01,,,,,,,
3782073,1492543767475,179.67,0.3,88.37,83.98,1958.98,153.63,,,,,,,
3782072,1492543767426,179.5,0.45,88.25,86.43,526.25,151.12,,,,,,,
3782071,1492543767375,179.9,0.09,88.12,88.87,1952.82,148.56,,,,,,,
3782070,1492543767326,-179.75,-0.22,87.99,91.31,1462.16,146.06,,,,,,,
3782069,1492543767275,-179.87,-0.12,87.87,93.63,-1998.47,143.62,,,,,,,
3782068,1492543767226,-179.63,-0.34,87.75,95.76,-265.87,141.36,,,,,,,
3782067,1492543767174,-179.88,-0.11,87.65,97.72,-1356.69,139.4,,,,,,,
3782066,1492543767125,179.27,0.67,87.57,99.37,349.91,137.7,,,,,,,
3782065,1492543767076,-179.72,-0.25,87.49,100.65,472.9,136.29,,,,,,,
3782064,1492543767025,179.79,0.19,87.45,101.5,1609.13,135.31,,,,,,,
3782063,1492543766976,179.9,0.09,87.42,101.93,1521.06,134.77,,,,,,,
3782062,1492543766924,179.96,0.03,87.42,101.93,496.52,134.58,,,,,,,
3782061,1492543766875,179.99,0,87.44,101.44,-415.95,134.89,,,,,,,
3782060,1492543766824,-179.99,-0.01,87.49,100.59,-1181.09,135.56,,,,,,,
3782059,1492543766775,179.97,0.03,87.56,99.3,-1943.05,136.6,,,,,,,
3782058,1492543766726,179.52,0.43,87.65,97.66,-789.73,138.06,,,,,,,
3782057,1492543766675,179.94,0.06,87.74,95.76,681.88,139.83,,,,,,,
3782056,1492543766625,179.48,0.47,87.86,93.57,-639.1,141.91,,,,,,,
3782055,1492543766574,179.75,0.23,87.98,91.19,-794.25,144.23,,,,,,,
3782054,1492543766525,-179.92,-0.07,88.11,88.68,704.22,146.67,,,,,,,
3782053,1492543766476,-179.36,-0.57,88.25,86.12,1814.58,149.11,,,,,,,
3782052,1492543766425,179.97,0.02,88.37,83.56,-1177.86,151.61,,,,,,,
3782051,1492543766376,-179.71,-0.26,88.49,81.12,997.62,153.99,,,,,,,
3782050,1492543766324,179.48,0.46,88.61,78.8,1611.27,156.19,,,,,,,
3782049,1492543766275,-179.85,-0.13,88.7,76.72,-1902.16,158.14,,,,,,,
3782048,1492543766224,-179.35,-0.57,88.79,74.95,1293.58,159.79,,,,,,,
3782047,1492543766175,179.85,0.13,88.86,73.49,-615.6,161.13,,,,,,,
3782046,1492543766126,179.97,0.03,88.91,72.45,-1964.54,162.11,,,,,,,
3782045,1492543766075,179.63,0.32,88.94,71.78,-95.28,162.66,,,,,,,
3782044,1492543766025,179.9,0.09,88.95,71.59,-181.46,162.78,,,,,,,
3782043,1492543765974,-179.76,-0.21,88.94,71.9,-1536.32,162.48,,,,,,,
3782042,1492543765925,179.7,0.27,88.91,72.63,911.62,161.8,,,,,,,
3782041,1492543765874,179.91,0.08,88.85,73.79,567.5,160.71,,,,,,,
3782040,1492543765825,179.81,0.17,88.78,75.32,1489.44,159.3,,,,,,,
3782039,1492543765776,179.69,0.27,88.69,77.21,59.63,157.53,,,,,,,
3782038,1492543765724,179.82,0.16,88.58,79.28,232.97,155.4,,,,,,,
3782037,1492543765675,-179.91,-0.08,88.47,81.48,-1336.67,153.08,,,,,,,
3782036,1492543765624,-179.98,-0.02,88.35,83.92,795.78,150.57,,,,,,,
3782035,1492543765575,-179.9,-0.09,88.22,86.36,-1228.94,148.01,,,,,,,
3782034,1492543765524,179.99,0.01,88.1,88.87,1712.95,145.45,,,,,,,
3782033,1492543765474,179.72,0.26,87.97,91.25,-1442.08,143.01,,,,,,,
3782032,1492543765425,179.79,0.19,87.85,93.51,1265.93,140.63,,,,,,,
3782031,1492543765374,-179.4,-0.55,87.74,95.52,1184.02,138.55,,,,,,,
3782030,1492543765325,-179.57,-0.4,87.65,97.23,-136.05,136.72,,,,,,,
3782029,1492543765274,179.89,0.1,87.57,98.69,53.22,135.19,,,,,,,
3782028,1492543765225,179.72,0.26,87.52,99.67,1622.56,134.03,,,,,,,
3782027,1492543765175,179.43,0.52,87.49,100.28,-1588.68,133.3,,,,,,,
3782026,1492543765124,-179.54,-0.42,87.48,100.46,13.73,133,,,,,,,
3782025,1492543765075,-179.82,-0.16,87.49,100.16,854.86,133.12,,,,,,,
3782024,1492543765024,-179.96,-0.03,87.53,99.43,-1417.36,133.61,,,,,,,
3782023,1492543764975,179.78,0.2,87.59,98.33,317.99,134.58,,,,,,,
3782022,1492543764924,-179.97,-0.03,87.66,96.8,1405.46,135.86,,,,,,,
3782021,1492543764874,-179.66,-0.31,87.76,94.97,1835.88,137.57,,,,,,,
3782020,1492543764825,179.91,0.08,87.87,92.9,739.2,139.53,,,,,,,
3782019,1492543764774,-180,0,87.99,90.58,943.54,141.72,,,,,,,
3782018,1492543764725,-179.92,-0.07,88.12,88.07,-1388.79,144.17,,,,,,,
3782017,1492543764674,179.87,0.12,88.25,85.51,-778.93,146.61,,,,,,,
3782016,1492543764625,-179.83,-0.15,88.38,82.95,-571.59,149.11,,,,,,,
3782015,1492543764573,179.91,0.08,88.5,80.44,-1607.79,151.49,,,,,,,
3782014,1492543764524,-179.96,-0.03,88.62,78.06,-1595.46,153.81,,,,,,,
3782013,1492543764475,179.57,0.38,88.72,75.87,-555.24,155.88,,,,,,,
3782012,1492543764424,179.59,0.37,88.81,73.97,1543.88,157.65,,,,,,,
3782011,1492543764375,179.27,0.64,88.89,72.39,1131.35,159.18,,,,,,,
3782010,1492543764324,179.99,0.01,88.94,71.17,1872.13,160.28,,,,,,,
3782009,1492543764274,-179.7,-0.27,88.97,70.43,247.86,160.95,,,,,,,
3782008,1492543764223,179.59,0.36,88.99,70.07,70.74,161.25,,,,,,,
3782007,1492543764174,-179.99,-0.01,88.99,70.13,-1839.72,161.13,,,,,,,
3782006,1492543764125,179.74,0.23,88.96,70.68,-550.35,160.58,,,,,,,
3782005,1492543764074,-179.74,-0.23,88.92,71.72,81.85,159.67,,,,,,,
3782004,1492543764024,179.57,0.38,88.86,73.12,601.5,158.39,,,,,,,
3782003,1492543763973,-179.51,-0.44,88.78,74.83,-433.84,156.74,,,,,,,
3782002,1492543763924,-179.64,-0.33,88.68,76.9,-834.41,154.72,,,,,,,
3782001,1492543763875,179.87,0.12,88.56,79.1,-400.33,152.47,,,,,,,
